ax,ay,az,gx,gy,gz
-0.1,-0.68,0.68,-5.21,8.28,-1.23
-0.1,-0.68,0.69,-5.01,7.84,-1.2
-0.1,-0.68,0.68,-4.92,7.34,-1.19
-0.09,-0.68,0.68,-4.96,6.84,-1.14
-0.09,-0.68,0.68,-5.09,6.43,-1.02
-0.09,-0.69,0.67,-5.17,6.12,-0.84
-0.09,-0.69,0.67,-5.17,6.12,-0.84
-0.1,-0.69,0.67,-5.09,5.9,-0.62
-0.1,-0.69,0.66,-4.89,5.7,-0.38
-0.11,-0.69,0.66,-4.6,5.48,-0.18
-0.11,-0.69,0.67,-4.24,5.26,-0.03
-0.11,-0.69,0.67,-3.78,5.04,0.09
-0.11,-0.69,0.67,-3.78,5.04,0.09
-0.11,-0.69,0.67,-3.26,4.84,0.2
-0.11,-0.7,0.67,-2.71,4.71,0.32
-0.11,-0.7,0.67,-2.12,4.56,0.43
-0.11,-0.7,0.68,-1.48,4.32,0.58
-0.12,-0.7,0.68,-0.9,3.96,0.85
-0.12,-0.7,0.68,-0.9,3.96,0.85
-0.13,-0.7,0.68,-0.4,3.45,1.13
-0.13,-0.7,0.68,0.04,2.77,1.21
-0.13,-0.7,0.68,0.48,1.94,1.2
-0.12,-0.69,0.68,0.87,1.07,1.21
-0.11,-0.69,0.69,1.17,0.32,1.24
-0.11,-0.69,0.69,1.17,0.32,1.24
-0.11,-0.69,0.69,1.29,-0.25,1.23
-0.11,-0.7,0.68,1.27,-0.57,1.21
-0.11,-0.71,0.68,1.22,-0.7,1.2
-0.12,-0.72,0.67,1.28,-0.63,1.12
-0.12,-0.72,0.67,1.45,-0.48,0.95
-0.12,-0.72,0.67,1.45,-0.48,0.95
-0.12,-0.71,0.67,1.74,-0.26,0.71
-0.12,-0.71,0.66,2.05,-0.11,0.46
-0.12,-0.71,0.66,2.35,-0.06,0.16
-0.12,-0.7,0.65,2.63,-0.19,-0.11
-0.11,-0.7,0.65,2.9,-0.45,-0.28
-0.11,-0.7,0.65,2.9,-0.45,-0.28
-0.1,-0.69,0.66,3.11,-0.74,-0.34
-0.1,-0.69,0.65,3.25,-0.98,-0.27
-0.11,-0.69,0.66,3.32,-1.16,-0.07
-0.12,-0.7,0.66,3.32,-1.33,0.2
-0.13,-0.71,0.65,3.3,-1.57,0.44
-0.13,-0.71,0.65,3.3,-1.57,0.44
-0.13,-0.71,0.65,3.3,-1.87,0.65
-0.12,-0.71,0.65,3.35,-2.28,0.81
-0.11,-0.71,0.65,3.46,-2.7,0.94
-0.11,-0.71,0.65,3.6,-3.0,1.07
-0.1,-0.71,0.65,3.79,-3.15,1.21
-0.1,-0.71,0.65,3.79,-3.15,1.21
-0.1,-0.71,0.65,4.0,-3.14,1.45
-0.1,-0.71,0.64,4.23,-2.96,1.67
-0.1,-0.71,0.64,4.48,-2.62,1.82
-0.1,-0.7,0.65,4.73,-2.14,1.92
-0.1,-0.7,0.65,4.87,-1.57,2.01
-0.1,-0.7,0.65,4.87,-1.57,2.01
-0.1,-0.69,0.66,4.9,-0.98,2.07
-0.11,-0.69,0.65,4.72,-0.43,2.1
-0.11,-0.69,0.66,4.31,-0.03,2.06
-0.11,-0.69,0.66,3.73,0.2,2.0
-0.11,-0.69,0.66,3.07,0.31,1.95
-0.11,-0.69,0.66,3.07,0.31,1.95
-0.11,-0.7,0.66,2.43,0.37,1.93
-0.11,-0.7,0.66,1.84,0.41,2.0
-0.12,-0.7,0.66,1.38,0.46,2.08
-0.13,-0.7,0.67,1.09,0.52,2.19
-0.13,-0.69,0.67,1.02,0.68,2.28
-0.13,-0.69,0.67,1.02,0.68,2.28
-0.14,-0.68,0.68,1.1,0.94,2.35
-0.14,-0.67,0.69,1.21,1.34,2.43
-0.15,-0.66,0.7,1.25,1.8,2.58
-0.16,-0.66,0.71,1.09,2.22,2.86
-0.17,-0.66,0.71,0.8,2.5,3.11
-0.17,-0.66,0.71,0.8,2.5,3.11
-0.18,-0.66,0.71,0.51,2.55,3.25
-0.18,-0.66,0.71,0.19,2.29,3.33
-0.18,-0.66,0.72,-0.23,1.73,3.42
-0.17,-0.65,0.72,-0.81,0.94,3.52
-0.17,-0.66,0.72,-1.57,-0.02,3.51
-0.17,-0.66,0.72,-1.57,-0.02,3.51
-0.16,-0.67,0.72,-2.5,-1.09,3.45
-0.15,-0.68,0.71,-3.45,-2.29,3.42
-0.14,-0.69,0.71,-4.37,-3.53,3.4
-0.13,-0.71,0.7,-5.21,-4.73,3.38
-0.12,-0.72,0.68,-5.93,-5.82,3.35
-0.12,-0.72,0.68,-5.93,-5.82,3.35
-0.1,-0.73,0.67,-6.37,-6.7,3.3
-0.09,-0.74,0.66,-6.47,-7.36,3.24
-0.08,-0.75,0.65,-6.2,-7.71,3.25
-0.08,-0.75,0.65,-5.62,-7.75,3.35
-0.08,-0.75,0.64,-4.75,-7.56,3.49
-0.08,-0.75,0.64,-4.75,-7.56,3.49
-0.08,-0.75,0.63,-3.6,-7.25,3.63
-0.09,-0.75,0.63,-2.19,-6.9,3.74
-0.09,-0.74,0.64,-0.64,-6.6,3.81
-0.09,-0.74,0.64,0.88,-6.43,3.89
-0.08,-0.72,0.65,2.17,-6.43,4.0
-0.08,-0.72,0.65,2.17,-6.43,4.0
-0.09,-0.72,0.65,3.09,-6.52,4.03
-0.09,-0.72,0.65,3.65,-6.63,3.88
-0.09,-0.72,0.64,3.91,-6.78,3.58
-0.09,-0.72,0.64,3.93,-6.91,3.23
-0.08,-0.72,0.65,3.7,-7.12,2.89
-0.08,-0.72,0.65,3.7,-7.12,2.89
-0.08,-0.72,0.64,3.25,-7.29,2.52
-0.08,-0.73,0.63,2.66,-7.33,2.03
-0.07,-0.74,0.62,2.09,-7.2,1.45
-0.06,-0.74,0.61,1.7,-6.92,0.92
-0.06,-0.75,0.61,1.61,-6.52,0.48
-0.06,-0.75,0.61,1.61,-6.52,0.48
-0.06,-0.75,0.6,1.85,-5.98,0.19
-0.07,-0.75,0.61,2.43,-5.35,0.01
-0.07,-0.74,0.61,3.35,-4.69,-0.08
-0.08,-0.73,0.61,4.58,-4.03,-0.11
-0.09,-0.72,0.62,5.95,-3.49,-0.12
-0.09,-0.72,0.62,5.95,-3.49,-0.12
-0.09,-0.71,0.64,7.26,-3.09,-0.14
-0.09,-0.7,0.65,8.37,-2.89,-0.22
-0.1,-0.69,0.66,9.16,-2.81,-0.31
-0.11,-0.68,0.66,9.58,-2.9,-0.45
-0.11,-0.67,0.67,9.56,-3.15,-0.65
-0.11,-0.67,0.67,9.56,-3.15,-0.65
-0.11,-0.66,0.67,9.07,-3.51,-0.95
-0.1,-0.66,0.68,8.16,-3.89,-1.35
-0.1,-0.67,0.67,6.92,-4.22,-1.86
-0.09,-0.68,0.66,5.56,-4.37,-2.41
-0.08,-0.69,0.66,4.22,-4.34,-2.91
-0.08,-0.69,0.66,4.22,-4.34,-2.91
-0.08,-0.7,0.65,3.12,-4.13,-3.27
-0.08,-0.71,0.64,2.44,-3.75,-3.52
-0.09,-0.71,0.63,2.33,-3.23,-3.7
-0.09,-0.71,0.63,2.76,-2.58,-3.86
-0.09,-0.7,0.64,3.67,-1.83,-3.99
-0.09,-0.7,0.64,3.67,-1.83,-3.99
-0.09,-0.68,0.65,4.9,-1.03,-4.03
-0.1,-0.66,0.66,6.2,-0.29,-3.95
-0.11,-0.64,0.67,7.43,0.23,-3.81
-0.12,-0.63,0.67,8.4,0.46,-3.6
-0.13,-0.63,0.68,9.11,0.42,-3.37
-0.13,-0.63,0.68,9.11,0.42,-3.37
-0.13,-0.63,0.68,9.55,0.18,-3.1
-0.13,-0.62,0.68,9.77,-0.25,-2.79
-0.13,-0.62,0.69,9.83,-0.8,-2.47
-0.12,-0.63,0.69,9.72,-1.38,-2.13
-0.13,-0.63,0.68,9.46,-1.93,-1.76
-0.13,-0.63,0.68,9.46,-1.93,-1.76
-0.13,-0.65,0.68,9.14,-2.34,-1.43
-0.13,-0.66,0.67,8.91,-2.57,-1.19
-0.13,-0.67,0.67,8.86,-2.42,-1.0
-0.14,-0.68,0.66,9.02,-1.93,-0.85
-0.14,-0.69,0.65,9.4,-1.24,-0.64
-0.14,-0.69,0.65,9.4,-1.24,-0.64
-0.14,-0.7,0.65,9.88,-0.38,-0.31
-0.14,-0.72,0.65,10.33,0.76,0.09
-0.16,-0.74,0.65,10.75,2.34,0.55
-0.19,-0.78,0.63,11.23,4.39,1.12
-0.23,-0.81,0.62,11.57,6.66,1.82
-0.23,-0.81,0.62,11.57,6.66,1.82
-0.28,-0.84,0.61,11.66,8.82,2.55
-0.32,-0.87,0.58,11.58,10.75,3.25
-0.37,-0.9,0.57,11.46,12.23,3.9
-0.41,-0.92,0.56,11.4,12.91,4.7
-0.45,-0.95,0.55,11.13,12.91,5.33
-0.45,-0.95,0.55,11.13,12.91,5.33
-0.46,-0.97,0.52,10.44,12.63,5.35
-0.46,-1.0,0.48,9.41,12.35,4.64
-0.45,-1.02,0.43,8.31,12.3,3.26
-0.43,-1.04,0.39,7.23,12.69,1.45
-0.4,-1.04,0.36,6.27,13.73,-0.68
-0.4,-1.04,0.36,6.27,13.73,-0.68
-0.38,-1.04,0.33,5.32,15.45,-2.92
-0.36,-1.04,0.3,4.28,17.7,-5.15
-0.34,-1.04,0.28,3.08,20.24,-7.3
-0.32,-1.04,0.27,1.64,22.85,-9.36
-0.31,-1.03,0.25,-0.08,25.42,-11.38
-0.31,-1.03,0.25,-0.08,25.42,-11.38
-0.29,-1.02,0.23,-2.07,27.95,-13.55
-0.26,-1.01,0.22,-4.38,30.54,-15.91
-0.21,-1.01,0.23,-7.06,33.12,-18.35
-0.17,-1.01,0.25,-10.17,35.78,-20.73
-0.13,-1.01,0.27,-13.76,38.87,-23.07
-0.13,-1.01,0.27,-13.76,38.87,-23.07
-0.1,-1.02,0.27,-17.72,42.58,-25.48
-0.07,-1.04,0.27,-21.8,46.66,-27.96
-0.05,-1.06,0.27,-25.73,50.89,-30.46
-0.02,-1.07,0.29,-29.13,54.97,-32.96
0.0,-1.08,0.32,-31.79,58.71,-35.46
0.0,-1.08,0.32,-31.79,58.71,-35.46
0.02,-1.06,0.37,-33.75,62.01,-37.98
0.05,-1.04,0.42,-35.4,64.81,-40.56
0.08,-1.02,0.45,-37.27,67.2,-43.4
0.13,-1.01,0.49,-39.59,69.33,-46.55
0.19,-1.01,0.53,-42.3,71.32,-49.89
0.19,-1.01,0.53,-42.3,71.32,-49.89
0.24,-1.02,0.56,-45.13,73.19,-53.12
0.26,-1.02,0.59,-47.8,74.9,-55.89
0.26,-1.03,0.61,-50.01,76.23,-58.15
0.26,-1.04,0.64,-51.37,76.9,-60.05
0.26,-1.04,0.67,-51.47,76.74,-61.92
0.26,-1.04,0.67,-51.47,76.74,-61.92
0.28,-1.03,0.71,-50.32,75.77,-63.74
0.3,-1.01,0.76,-48.06,74.13,-65.49
0.32,-0.98,0.81,-44.78,72.16,-67.52
0.34,-0.93,0.87,-40.64,70.13,-69.93
0.37,-0.87,0.91,-35.75,67.98,-72.83
0.37,-0.87,0.91,-35.75,67.98,-72.83
0.4,-0.8,0.98,-30.38,65.68,-75.61
0.41,-0.73,1.07,-25.08,63.17,-77.84
0.41,-0.64,1.16,-20.13,60.51,-79.51
0.4,-0.58,1.24,-15.95,57.87,-81.16
0.38,-0.54,1.3,-12.78,55.3,-83.04
0.38,-0.54,1.3,-12.78,55.3,-83.04
0.36,-0.47,1.34,-10.86,52.51,-84.78
0.36,-0.47,1.34,-10.28,49.25,-86.57
0.36,-0.51,1.31,-10.13,45.8,-87.81
0.34,-0.54,1.3,-8.76,42.42,-88.17
0.3,-0.51,1.32,-5.62,39.12,-88.23
0.3,-0.51,1.32,-5.62,39.12,-88.23
0.26,-0.48,1.35,-0.87,35.8,-88.47
0.2,-0.44,1.36,5.42,32.36,-88.53
0.12,-0.4,1.36,13.29,28.54,-87.87
0.01,-0.32,1.4,22.56,24.74,-86.53
-0.08,-0.23,1.41,32.73,21.41,-85.33
-0.08,-0.23,1.41,32.73,21.41,-85.33
-0.16,-0.11,1.4,43.35,18.82,-84.89
-0.2,-0.0,1.39,54.11,17.26,-85.27
-0.25,0.07,1.39,64.72,16.87,-85.65
-0.3,0.16,1.41,74.6,17.55,-85.15
-0.37,0.24,1.4,82.9,19.03,-83.03
-0.37,0.24,1.4,82.9,19.03,-83.03
-0.49,0.32,1.39,89.36,21.06,-79.19
-0.64,0.37,1.36,94.04,22.92,-74.26
-0.76,0.39,1.26,97.25,23.46,-69.0
-0.85,0.4,1.14,99.83,21.68,-63.23
-0.9,0.42,1.09,102.33,16.94,-56.17
-0.9,0.42,1.09,102.33,16.94,-56.17
-0.93,0.45,1.06,104.24,9.37,-47.44
-0.93,0.48,1.03,104.71,-0.14,-37.52
-0.93,0.49,1.02,103.34,-10.45,-26.96
-0.92,0.46,1.0,99.96,-20.63,-16.34
-0.92,0.46,1.0,94.41,-30.02,-5.72
-0.91,0.38,0.96,94.41,-30.02,-5.72
-0.91,0.27,0.9,86.68,-38.27,5.25
-0.91,0.17,0.82,76.83,-45.46,16.38
-0.91,0.06,0.75,65.28,-51.95,27.22
-0.91,-0.05,0.7,52.55,-58.09,37.61
-0.91,-0.05,0.7,52.55,-58.09,37.61
-0.91,-0.17,0.64,39.0,-63.76,47.49
-0.91,-0.29,0.55,25.04,-68.92,56.65
-0.89,-0.43,0.42,11.13,-73.63,65.02
-0.87,-0.58,0.29,-1.89,-78.16,72.84
-0.85,-0.74,0.21,-13.64,-82.69,80.67
-0.85,-0.74,0.21,-13.64,-82.69,80.67
-0.83,-0.88,0.11,-24.33,-87.15,88.61
-0.82,-1.02,0.05,-33.91,-91.25,96.02
-0.77,-1.15,-0.01,-42.16,-94.63,102.15
-0.72,-1.26,-0.04,-48.52,-96.64,106.86
-0.67,-1.35,-0.07,-52.72,-96.61,110.46
-0.67,-1.35,-0.07,-52.72,-96.61,110.46
-0.64,-1.41,-0.07,-54.66,-94.58,113.53
-0.65,-1.44,-0.07,-54.8,-90.61,116.28
-0.68,-1.45,-0.07,-54.0,-85.04,118.36
-0.71,-1.44,-0.1,-53.33,-78.65,119.44
-0.73,-1.45,-0.12,-53.65,-72.18,119.45
-0.73,-1.45,-0.12,-53.65,-72.18,119.45
-0.75,-1.48,-0.17,-55.03,-66.65,118.66
-0.69,-1.59,-0.2,-56.66,-62.61,116.46
-0.63,-1.67,-0.25,-57.8,-59.46,114.87
-0.57,-1.69,-0.27,-57.67,-57.15,113.98
-0.51,-1.71,-0.26,-55.71,-55.0,113.55
-0.51,-1.71,-0.26,-55.71,-55.0,113.55
-0.46,-1.68,-0.21,-51.25,-52.1,113.03
-0.42,-1.64,-0.18,-45.57,-47.95,111.01
-0.4,-1.58,-0.19,-40.49,-43.09,107.02
-0.35,-1.53,-0.19,-36.79,-37.98,100.87
-0.26,-1.51,-0.17,-34.59,-32.78,93.3
-0.26,-1.51,-0.17,-34.59,-32.78,93.3
-0.18,-1.5,-0.13,-33.82,-27.64,86.11
-0.12,-1.48,-0.1,-34.48,-22.43,79.8
-0.09,-1.48,-0.08,-36.48,-16.56,73.5
-0.06,-1.51,-0.08,-39.21,-10.07,66.43
-0.03,-1.54,-0.08,-41.8,-3.72,58.8
-0.03,-1.54,-0.08,-41.8,-3.72,58.8
0.01,-1.54,-0.07,-43.8,1.87,51.19
0.05,-1.52,-0.05,-45.2,6.66,43.86
0.13,-1.5,-0.01,-45.93,11.04,36.14
0.23,-1.48,0.03,-45.93,15.71,28.11
0.32,-1.46,0.06,-45.55,21.02,20.42
0.32,-1.46,0.06,-45.55,21.02,20.42
0.4,-1.48,0.09,-44.9,27.07,13.33
0.44,-1.5,0.11,-43.55,33.89,7.24
0.47,-1.53,0.16,-40.79,41.03,1.53
0.49,-1.51,0.22,-36.55,48.03,-4.05
0.5,-1.46,0.29,-31.52,54.49,-9.77
0.5,-1.46,0.29,-31.52,54.49,-9.77
0.52,-1.41,0.37,-25.94,60.06,-16.05
0.57,-1.38,0.44,-19.58,64.59,-22.88
0.65,-1.29,0.49,-12.48,68.07,-29.83
0.75,-1.04,0.64,-3.56,70.39,-36.22
0.8,-0.9,0.85,4.18,72.77,-43.2
0.8,-0.9,0.85,4.18,72.77,-43.2
0.89,-0.83,0.93,9.6,75.91,-51.84
0.91,-0.81,0.99,14.74,78.77,-59.07
0.91,-0.63,1.1,19.4,81.22,-65.15
0.91,-0.53,1.26,21.68,84.52,-72.11
0.89,-0.52,1.33,23.25,87.35,-79.06
0.89,-0.52,1.33,23.25,87.35,-79.06
0.85,-0.41,1.39,25.96,88.85,-84.41
0.78,-0.3,1.47,29.4,89.63,-88.24
0.69,-0.21,1.55,34.96,89.34,-91.03
0.6,-0.1,1.64,42.74,88.1,-92.92
0.51,0.01,1.72,51.72,85.61,-93.58
0.51,0.01,1.72,51.72,85.61,-93.58
0.42,0.1,1.8,60.88,81.9,-92.33
0.27,0.18,1.86,69.25,77.57,-88.66
0.04,0.26,1.93,75.98,72.51,-83.23
-0.2,0.38,1.94,80.43,66.5,-78.01
-0.38,0.5,1.91,82.63,59.41,-74.58
-0.38,0.5,1.91,82.63,59.41,-74.58
-0.49,0.58,1.9,83.13,51.02,-72.86
-0.57,0.61,1.87,81.79,40.98,-70.96
-0.65,0.6,1.8,78.37,29.0,-67.03
-0.74,0.47,1.7,73.44,15.03,-60.82
-0.81,0.31,1.59,68.32,-0.17,-53.02
-0.81,0.31,1.59,68.32,-0.17,-53.02
-0.86,0.18,1.47,63.88,-15.38,-44.15
-0.88,0.1,1.33,60.14,-29.56,-34.72
-0.87,0.02,1.2,57.01,-42.5,-25.45
-0.85,-0.07,1.06,54.35,-53.82,-17.15
-0.84,-0.22,0.93,52.68,-62.69,-10.2
-0.84,-0.22,0.93,52.68,-62.69,-10.2
-0.83,-0.38,0.82,52.84,-68.32,-3.51
-0.89,-0.49,0.72,54.82,-70.8,4.26
-0.97,-0.55,0.62,57.99,-71.0,12.81
-1.03,-0.6,0.53,61.73,-70.06,21.31
-1.06,-0.65,0.44,64.98,-68.67,29.55
-1.06,-0.65,0.44,64.98,-68.67,29.55
-1.07,-0.71,0.34,66.76,-67.13,37.56
-1.07,-0.76,0.24,66.57,-65.68,45.18
-1.08,-0.8,0.16,64.17,-64.54,52.27
-1.09,-0.84,0.09,59.22,-63.57,58.33
-1.07,-0.88,0.03,51.36,-62.7,62.73
-1.07,-0.88,0.03,51.36,-62.7,62.73
-1.0,-0.93,-0.07,40.42,-62.01,65.47
-0.91,-1.0,-0.18,26.67,-61.72,67.15
-0.83,-1.09,-0.28,10.33,-62.02,68.14
-0.72,-1.21,-0.43,-8.17,-63.27,68.33
-0.63,-1.33,-0.54,-27.55,-66.31,68.52
-0.63,-1.33,-0.54,-27.55,-66.31,68.52
-0.64,-1.47,-0.57,-46.86,-69.8,68.98
-0.63,-1.61,-0.61,-65.04,-71.28,68.16
-0.55,-1.69,-0.64,-79.52,-70.99,66.34
-0.44,-1.74,-0.63,-88.92,-68.71,64.54
-0.35,-1.78,-0.58,-93.21,-64.07,63.28
-0.35,-1.78,-0.58,-93.21,-64.07,63.28
-0.28,-1.78,-0.52,-92.79,-57.39,62.57
-0.24,-1.73,-0.46,-88.26,-48.94,62.28
-0.21,-1.62,-0.39,-80.91,-38.97,61.96
-0.18,-1.48,-0.29,-72.77,-27.79,60.8
-0.15,-1.36,-0.17,-65.85,-16.16,58.44
-0.15,-1.36,-0.17,-65.85,-16.16,58.44
-0.13,-1.26,-0.06,-61.52,-5.01,55.23
-0.13,-1.21,0.03,-60.43,5.01,51.31
-0.11,-1.21,0.08,-62.53,13.43,46.18
-0.04,-1.27,0.11,-66.85,20.03,39.89
0.06,-1.35,0.17,-71.43,24.99,33.39
0.06,-1.35,0.17,-71.43,24.99,33.39
0.18,-1.43,0.22,-74.55,29.14,27.36
0.31,-1.47,0.26,-75.28,33.21,21.66
0.42,-1.47,0.32,-73.55,37.44,16.5
0.48,-1.45,0.41,-69.51,41.63,12.2
0.51,-1.4,0.47,-63.02,45.68,8.59
0.51,-1.4,0.47,-63.02,45.68,8.59
0.52,-1.32,0.54,-54.52,49.45,4.99
0.56,-1.22,0.65,-44.68,52.99,0.01
0.63,-1.08,0.79,-34.31,56.71,-6.85
0.72,-0.95,0.94,-25.04,60.7,-15.67
0.8,-0.83,1.08,-17.74,64.44,-25.32
0.8,-0.83,1.08,-17.74,64.44,-25.32
0.86,-0.75,1.18,-12.45,67.56,-34.82
0.93,-0.71,1.24,-8.59,70.14,-43.89
1.0,-0.65,1.31,-5.23,72.57,-52.46
1.03,-0.57,1.39,-2.42,75.06,-59.92
1.0,-0.59,1.42,1.19,76.61,-66.88
1.0,-0.59,1.42,1.19,76.61,-66.88
0.93,-0.54,1.46,7.81,77.91,-73.4
0.74,-0.53,1.56,16.36,78.69,-77.75
0.54,-0.48,1.59,26.83,77.14,-79.07
0.34,-0.43,1.58,38.5,73.2,-77.4
0.17,-0.28,1.62,50.62,66.2,-74.32
0.17,-0.28,1.62,50.62,66.2,-74.32
0.04,-0.15,1.69,62.0,56.97,-71.39
-0.07,-0.03,1.71,71.64,46.72,-69.37
-0.15,0.05,1.69,78.68,36.27,-68.8
-0.2,0.1,1.63,83.37,26.49,-69.65
-0.25,0.12,1.56,86.49,17.23,-70.63
-0.25,0.12,1.56,86.49,17.23,-70.63
-0.31,0.14,1.49,89.31,8.68,-70.15
-0.39,0.18,1.44,92.4,0.94,-67.9
-0.47,0.21,1.4,95.48,-6.37,-63.81
-0.55,0.25,1.31,98.01,-13.51,-57.75
-0.64,0.31,1.2,99.61,-20.76,-49.88
-0.64,0.31,1.2,99.61,-20.76,-49.88
-0.69,0.34,1.1,100.28,-28.76,-41.36
-0.7,0.31,1.04,99.96,-37.3,-32.24
-0.73,0.28,0.99,97.98,-46.11,-21.88
-0.75,0.23,0.9,93.61,-54.88,-10.76
-0.77,0.17,0.77,87.21,-62.44,0.74
-0.77,0.17,0.77,87.21,-62.44,0.74
-0.8,0.1,0.63,80.34,-67.58,11.99
-0.81,-0.01,0.54,74.57,-69.95,22.53
-0.81,-0.13,0.51,70.09,-69.61,32.61
-0.77,-0.26,0.46,65.49,-66.72,43.65
-0.81,-0.32,0.33,59.48,-61.74,57.58
-0.81,-0.32,0.33,59.48,-61.74,57.58
-0.86,-0.42,0.22,52.25,-56.61,72.1
-0.87,-0.57,0.17,45.53,-51.82,85.35
-0.92,-0.71,0.16,39.75,-46.82,97.36
-0.98,-0.84,0.16,34.26,-42.13,107.76
-1.0,-0.94,0.12,28.22,-37.57,115.83
-1.0,-0.94,0.12,28.22,-37.57,115.83
-0.97,-1.02,0.06,20.63,-33.33,122.01
-0.92,-1.11,-0.01,10.82,-30.6,126.97
-0.86,-1.25,-0.06,-0.96,-30.0,131.04
-0.82,-1.43,-0.08,-13.94,-30.89,134.16
-0.79,-1.59,-0.1,-27.2,-32.18,135.53
-0.79,-1.59,-0.1,-27.2,-32.18,135.53
-0.73,-1.73,-0.13,-39.37,-32.71,134.08
-0.62,-1.84,-0.17,-49.69,-31.34,129.63
-0.5,-1.94,-0.21,-57.61,-28.46,123.2
-0.39,-1.98,-0.24,-63.2,-24.55,115.98
-0.3,-1.98,-0.25,-66.51,-19.75,108.34
-0.3,-1.98,-0.25,-66.51,-19.75,108.34
-0.22,-1.98,-0.24,-67.23,-14.17,100.23
-0.16,-1.98,-0.2,-65.12,-7.98,91.92
-0.14,-1.98,-0.13,-60.7,-1.26,83.48
-0.15,-1.98,-0.08,-54.88,5.38,74.37
-0.12,-1.92,-0.03,-48.73,11.43,63.89
-0.12,-1.92,-0.03,-48.73,11.43,63.89
-0.04,-1.83,0.03,-43.3,16.74,52.11
0.04,-1.73,0.09,-39.23,21.49,39.65
0.12,-1.65,0.15,-36.72,26.25,26.86
0.18,-1.58,0.2,-35.73,31.12,14.07
0.2,-1.54,0.24,-35.76,35.45,1.52
0.2,-1.54,0.24,-35.76,35.45,1.52
0.21,-1.51,0.27,-36.25,38.84,-10.69
0.24,-1.49,0.31,-36.72,41.11,-22.62
0.29,-1.46,0.37,-36.75,42.51,-34.33
0.35,-1.39,0.44,-35.92,43.65,-45.82
0.42,-1.24,0.51,-33.9,44.99,-57.34
0.42,-1.24,0.51,-33.9,44.99,-57.34
0.5,-1.01,0.61,-30.76,46.67,-69.29
0.6,-0.66,0.76,-27.84,48.69,-82.09
0.69,-0.3,1.0,-28.26,50.98,-96.29
0.75,-0.16,1.14,-34.66,52.47,-110.09
0.84,-0.42,1.0,-45.11,52.75,-120.52
0.84,-0.42,1.0,-45.11,52.75,-120.52
0.9,-0.65,0.9,-52.27,53.85,-125.7
0.83,-0.76,1.05,-52.57,56.03,-126.44
0.67,-0.69,1.24,-46.12,59.47,-124.98
0.41,-0.61,1.4,-35.04,64.19,-122.56
0.2,-0.45,1.53,-20.16,69.5,-119.8
0.2,-0.45,1.53,-20.16,69.5,-119.8
0.05,-0.31,1.59,-2.29,73.79,-115.73
-0.03,-0.02,1.73,19.08,76.83,-110.96
-0.12,0.33,1.96,40.57,77.35,-105.81
-0.2,0.58,1.96,57.43,74.56,-100.37
-0.25,0.66,1.96,67.86,68.21,-94.23
-0.25,0.66,1.96,67.86,68.21,-94.23
-0.3,0.68,1.96,72.51,58.77,-86.73
-0.31,0.61,1.84,71.67,45.82,-79.13
-0.23,0.43,1.71,67.8,30.23,-72.1
-0.15,0.29,1.62,63.85,14.41,-64.55
-0.09,0.23,1.51,60.66,0.13,-56.39
-0.09,0.23,1.51,60.66,0.13,-56.39
-0.09,0.16,1.39,58.16,-11.96,-48.17
-0.12,0.07,1.26,56.35,-21.83,-39.77
-0.16,-0.01,1.13,55.46,-29.68,-31.42
-0.22,-0.08,0.97,55.84,-35.58,-22.95
-0.28,-0.16,0.83,58.28,-39.46,-14.12
-0.28,-0.16,0.83,58.28,-39.46,-14.12
-0.37,-0.21,0.73,63.58,-41.44,-5.15
-0.46,-0.24,0.69,71.51,-41.97,3.88
-0.56,-0.25,0.68,80.82,-41.69,12.81
-0.64,-0.25,0.67,90.18,-41.03,21.7
-0.73,-0.21,0.69,98.51,-40.3,31.02
-0.73,-0.21,0.69,98.51,-40.3,31.02
-0.84,-0.13,0.7,104.61,-40.13,41.0
-0.96,-0.05,0.71,107.08,-41.21,50.92
-1.06,0.01,0.69,104.48,-43.73,59.63
-1.09,-0.06,0.62,95.53,-47.55,66.4
-1.01,-0.32,0.49,81.04,-52.24,72.87
-1.01,-0.32,0.49,81.04,-52.24,72.87
-0.97,-0.53,0.34,64.37,-56.0,82.11
-1.03,-0.66,0.25,48.21,-58.96,92.07
-1.0,-0.83,0.25,34.39,-61.79,97.52
-0.92,-1.01,0.24,23.14,-62.58,100.04
-0.86,-1.17,0.13,13.95,-60.83,102.57
-0.86,-1.17,0.13,13.95,-60.83,102.57
-0.81,-1.29,-0.04,7.3,-57.43,106.1
-0.78,-1.39,-0.15,4.02,-53.83,110.1
