ax,ay,az,gx,gy,gz
-0.48,0.01,0.8,-1.35,11.33,1.34
-0.48,0.02,0.8,-1.42,10.82,0.71
-0.48,0.02,0.79,-1.33,10.45,0.25
-0.49,0.03,0.79,-1.08,10.17,-0.11
-0.5,0.04,0.79,-0.71,9.98,-0.4
-0.5,0.04,0.79,-0.71,9.98,-0.4
-0.51,0.05,0.79,-0.35,9.91,-0.65
-0.52,0.06,0.79,-0.06,9.9,-0.85
-0.53,0.07,0.8,0.11,9.88,-1.01
-0.55,0.08,0.8,0.11,9.91,-1.11
-0.58,0.08,0.8,-0.04,9.93,-1.2
-0.58,0.08,0.8,-0.04,9.93,-1.2
-0.59,0.09,0.79,-0.3,9.77,-1.3
-0.59,0.09,0.79,-0.6,9.4,-1.35
-0.58,0.08,0.78,-0.9,8.75,-1.26
-0.57,0.08,0.78,-1.11,7.92,-1.0
-0.57,0.08,0.78,-1.18,6.95,-0.54
-0.57,0.08,0.77,-1.18,6.95,-0.54
-0.56,0.08,0.76,-1.08,5.8,0.05
-0.55,0.08,0.76,-0.77,4.59,0.76
-0.53,0.08,0.76,-0.31,3.47,1.57
-0.51,0.07,0.76,0.31,2.58,2.52
-0.51,0.07,0.76,1.01,2.04,3.66
-0.49,0.07,0.76,1.01,2.04,3.66
-0.49,0.07,0.76,1.73,1.89,4.95
-0.5,0.06,0.74,2.55,2.13,6.33
-0.51,0.06,0.74,3.55,2.7,7.68
-0.52,0.06,0.73,4.8,3.42,8.98
-0.52,0.06,0.73,4.8,3.42,8.98
-0.52,0.07,0.73,6.28,4.27,10.1
-0.52,0.09,0.74,7.82,5.2,10.96
-0.53,0.11,0.74,9.21,6.14,11.71
-0.54,0.12,0.75,10.28,6.87,12.38
-0.56,0.14,0.76,10.92,7.3,13.02
-0.56,0.14,0.76,10.92,7.3,13.02
-0.57,0.14,0.77,11.02,7.35,13.57
-0.59,0.14,0.78,10.6,6.96,13.98
-0.6,0.15,0.78,9.73,6.07,14.23
-0.61,0.15,0.8,8.48,4.68,14.39
-0.61,0.15,0.81,6.8,2.67,14.56
-0.61,0.15,0.81,6.8,2.67,14.56
-0.6,0.13,0.82,4.53,0.09,14.59
-0.59,0.11,0.81,1.85,-2.75,14.46
-0.58,0.08,0.81,-1.05,-5.68,14.22
-0.57,0.03,0.81,-3.92,-8.45,13.8
-0.56,-0.01,0.81,-6.52,-10.88,13.27
-0.56,-0.01,0.81,-6.52,-10.88,13.27
-0.54,-0.06,0.8,-8.59,-12.81,12.67
-0.53,-0.1,0.8,-10.0,-14.13,12.03
-0.52,-0.14,0.8,-10.58,-14.78,11.41
-0.51,-0.18,0.8,-10.26,-14.85,10.84
-0.5,-0.21,0.8,-8.93,-14.45,10.36
-0.5,-0.21,0.8,-8.93,-14.45,10.36
-0.5,-0.22,0.81,-6.67,-13.74,10.03
-0.51,-0.24,0.83,-3.68,-12.87,9.82
-0.51,-0.25,0.85,-0.18,-12.0,9.66
-0.52,-0.25,0.87,3.56,-11.26,9.49
-0.53,-0.27,0.9,7.28,-10.84,9.19
-0.53,-0.27,0.9,7.28,-10.84,9.19
-0.55,-0.27,0.93,10.74,-10.81,8.72
-0.56,-0.29,0.96,13.77,-11.16,7.97
-0.57,-0.31,0.96,16.29,-11.71,6.72
-0.58,-0.32,0.96,18.42,-12.33,4.71
-0.6,-0.34,0.96,20.32,-13.03,1.87
-0.6,-0.34,0.96,20.32,-13.03,1.87
-0.62,-0.33,0.94,22.12,-14.06,-1.9
-0.62,-0.32,0.93,23.81,-15.48,-6.59
-0.61,-0.31,0.93,25.31,-17.28,-12.04
-0.6,-0.3,0.95,26.5,-19.29,-18.04
-0.57,-0.31,0.96,27.33,-21.34,-24.31
-0.57,-0.31,0.96,27.33,-21.34,-24.31
-0.55,-0.32,0.96,27.76,-23.25,-30.5
-0.55,-0.34,0.95,28.01,-24.92,-36.49
-0.53,-0.36,0.92,28.38,-26.39,-42.17
-0.51,-0.39,0.9,29.23,-27.74,-47.49
-0.49,-0.4,0.87,30.87,-29.06,-52.47
-0.49,-0.4,0.87,30.87,-29.06,-52.47
-0.47,-0.39,0.85,33.47,-30.32,-57.14
-0.46,-0.36,0.82,37.01,-31.51,-61.6
-0.44,-0.34,0.81,41.24,-32.6,-65.93
-0.44,-0.31,0.8,45.99,-33.53,-70.05
-0.45,-0.27,0.81,50.89,-34.19,-73.87
-0.45,-0.27,0.81,50.89,-34.19,-73.87
-0.47,-0.23,0.82,55.59,-34.44,-77.54
-0.51,-0.19,0.82,59.77,-34.18,-81.16
-0.55,-0.15,0.79,63.25,-33.51,-84.74
-0.59,-0.12,0.77,66.15,-32.7,-88.32
-0.61,-0.08,0.75,68.56,-32.0,-91.86
-0.61,-0.08,0.75,68.56,-32.0,-91.86
-0.63,-0.04,0.72,70.55,-31.59,-95.4
-0.62,0.0,0.69,72.17,-31.64,-98.87
-0.59,0.04,0.67,73.41,-32.23,-102.09
-0.55,0.08,0.65,74.23,-33.28,-104.84
-0.5,0.09,0.65,74.55,-34.6,-106.91
-0.5,0.09,0.65,74.55,-34.6,-106.91
-0.45,0.09,0.64,74.33,-35.85,-108.13
-0.41,0.07,0.63,73.68,-36.46,-108.48
-0.39,0.04,0.61,72.88,-36.14,-107.98
-0.41,0.03,0.57,72.19,-34.87,-106.86
-0.45,0.03,0.53,71.99,-32.94,-105.53
-0.45,0.03,0.53,71.99,-32.94,-105.53
-0.48,0.03,0.5,72.49,-30.72,-104.48
-0.49,0.05,0.48,73.72,-28.57,-103.94
-0.48,0.09,0.47,75.42,-26.59,-103.76
-0.46,0.13,0.49,77.08,-24.72,-103.79
-0.47,0.17,0.51,78.16,-22.65,-103.93
-0.47,0.17,0.51,78.16,-22.65,-103.93
-0.48,0.2,0.52,78.24,-19.96,-104.14
-0.51,0.22,0.52,77.19,-16.41,-104.48
-0.55,0.23,0.52,75.23,-12.29,-104.99
-0.6,0.24,0.52,72.69,-8.23,-105.74
-0.63,0.26,0.51,69.87,-4.74,-106.7
-0.63,0.26,0.51,69.87,-4.74,-106.7
-0.63,0.29,0.52,66.91,-2.05,-107.77
-0.63,0.32,0.53,63.68,-0.17,-108.72
-0.61,0.35,0.54,60.07,0.97,-109.29
-0.59,0.36,0.54,55.96,1.75,-109.34
-0.57,0.36,0.54,51.45,2.47,-108.85
-0.57,0.36,0.54,51.45,2.47,-108.85
-0.54,0.33,0.52,46.87,3.35,-107.74
-0.51,0.29,0.52,42.65,4.46,-105.88
-0.49,0.24,0.52,39.21,5.83,-103.06
-0.48,0.21,0.51,36.86,7.51,-99.33
-0.49,0.18,0.5,35.77,9.54,-94.89
-0.49,0.18,0.5,35.77,9.54,-94.89
-0.53,0.16,0.5,35.99,11.96,-89.93
-0.58,0.17,0.5,37.46,14.65,-84.84
-0.63,0.2,0.5,39.97,17.29,-79.95
-0.67,0.26,0.53,43.14,19.5,-75.45
-0.68,0.33,0.57,46.29,21.23,-71.48
-0.68,0.33,0.57,46.29,21.23,-71.48
-0.69,0.4,0.61,48.6,22.53,-68.08
-0.68,0.45,0.64,49.45,23.48,-65.13
-0.66,0.47,0.67,48.57,24.04,-62.53
-0.64,0.47,0.7,46.03,24.25,-60.15
-0.61,0.44,0.71,42.17,24.16,-57.82
-0.61,0.44,0.71,42.17,24.16,-57.82
-0.6,0.38,0.7,37.47,23.85,-55.39
-0.59,0.33,0.69,32.72,23.45,-52.85
-0.58,0.28,0.68,28.68,22.68,-50.26
-0.57,0.24,0.67,25.81,21.62,-47.69
-0.58,0.25,0.68,24.18,20.5,-45.07
-0.58,0.25,0.68,24.18,20.5,-45.07
-0.59,0.27,0.69,23.5,19.33,-42.47
-0.58,0.3,0.71,23.43,18.17,-39.97
-0.56,0.33,0.74,23.52,17.25,-37.43
-0.56,0.36,0.77,23.36,16.65,-34.78
-0.58,0.38,0.79,22.68,16.38,-32.16
-0.58,0.38,0.79,22.68,16.38,-32.16
-0.6,0.39,0.79,21.39,16.31,-29.72
-0.61,0.39,0.81,19.57,16.15,-27.59
-0.6,0.38,0.82,17.39,15.77,-25.69
-0.59,0.37,0.84,15.0,15.24,-23.93
-0.58,0.37,0.84,12.39,14.58,-22.22
-0.58,0.37,0.84,12.39,14.58,-22.22
-0.57,0.36,0.84,9.74,13.76,-20.46
-0.56,0.35,0.86,7.25,12.74,-18.54
-0.55,0.34,0.87,4.96,11.6,-16.4
-0.55,0.33,0.88,2.95,10.43,-13.97
-0.56,0.32,0.89,1.33,9.29,-11.3
-0.56,0.32,0.89,1.33,9.29,-11.3
-0.56,0.31,0.9,0.14,8.14,-8.41
-0.56,0.31,0.91,-0.64,6.98,-5.45
-0.58,0.32,0.91,-1.07,5.97,-2.52
-0.61,0.34,0.91,-1.24,5.0,0.24
-0.62,0.37,0.91,-1.29,3.91,2.63
-0.62,0.37,0.91,-1.29,3.91,2.63
-0.63,0.41,0.92,-1.43,2.65,4.57
-0.63,0.45,0.94,-2.0,1.22,6.11
-0.62,0.48,0.96,-3.29,-0.35,7.39
-0.61,0.51,0.97,-5.55,-1.94,8.55
-0.61,0.51,0.98,-8.77,-3.41,9.67
-0.61,0.51,0.98,-8.77,-3.41,9.67
-0.62,0.48,0.98,-12.73,-4.75,10.79
-0.62,0.44,0.97,-16.96,-6.08,11.98
-0.62,0.41,0.96,-20.94,-7.4,13.35
-0.62,0.38,0.95,-24.26,-8.81,14.98
-0.62,0.36,0.94,-26.73,-10.36,16.88
-0.62,0.36,0.94,-26.73,-10.36,16.88
-0.62,0.35,0.94,-28.28,-12.13,19.09
-0.62,0.36,0.93,-29.06,-14.14,21.56
-0.62,0.37,0.92,-29.18,-16.34,24.2
-0.62,0.4,0.92,-28.89,-18.61,26.89
-0.62,0.43,0.91,-28.44,-20.92,29.56
-0.62,0.43,0.91,-28.44,-20.92,29.56
-0.63,0.46,0.91,-28.15,-23.24,32.17
-0.63,0.48,0.91,-28.28,-25.52,34.68
-0.62,0.5,0.9,-29.0,-27.65,37.05
-0.62,0.5,0.89,-30.36,-29.54,39.36
-0.61,0.48,0.88,-32.25,-31.16,41.7
-0.61,0.48,0.88,-32.25,-31.16,41.7
-0.62,0.46,0.85,-34.47,-32.6,44.08
-0.62,0.44,0.82,-36.63,-33.95,46.52
-0.62,0.42,0.8,-38.4,-35.47,48.93
-0.61,0.42,0.78,-39.6,-37.2,51.31
-0.59,0.43,0.78,-40.41,-39.06,53.65
-0.59,0.43,0.78,-40.41,-39.06,53.65
-0.57,0.46,0.77,-41.18,-40.92,55.97
-0.56,0.47,0.76,-42.2,-42.58,58.3
-0.55,0.48,0.75,-43.66,-43.99,60.66
-0.53,0.48,0.73,-45.59,-44.99,62.98
-0.53,0.48,0.71,-47.91,-45.56,65.32
-0.53,0.48,0.71,-47.91,-45.56,65.32
-0.52,0.47,0.71,-50.51,-45.84,67.72
-0.52,0.47,0.7,-53.31,-45.94,70.27
-0.53,0.45,0.68,-56.29,-46.01,72.92
-0.55,0.44,0.65,-59.33,-46.15,75.58
-0.55,0.44,0.62,-62.26,-46.41,78.13
-0.55,0.44,0.62,-62.26,-46.41,78.13
-0.55,0.43,0.6,-64.97,-46.72,80.52
-0.53,0.42,0.59,-67.55,-46.92,82.79
-0.5,0.41,0.59,-70.15,-46.86,85.12
-0.49,0.38,0.58,-72.9,-46.31,87.69
-0.48,0.34,0.57,-75.81,-45.06,90.51
-0.48,0.34,0.57,-75.81,-45.06,90.51
-0.49,0.3,0.54,-78.64,-43.07,93.55
-0.5,0.24,0.53,-81.03,-40.62,96.69
-0.51,0.2,0.52,-82.62,-37.98,99.89
-0.51,0.16,0.51,-83.27,-35.28,103.14
-0.51,0.15,0.5,-83.02,-32.72,106.3
-0.51,0.15,0.5,-83.02,-32.72,106.3
-0.51,0.16,0.49,-82.04,-30.4,109.14
-0.51,0.17,0.51,-80.67,-28.35,111.41
-0.51,0.2,0.52,-79.4,-26.62,113.03
-0.51,0.23,0.52,-78.74,-25.05,113.95
-0.51,0.25,0.52,-79.1,-23.79,114.21
-0.51,0.25,0.52,-79.1,-23.79,114.21
-0.5,0.25,0.53,-80.75,-22.83,113.9
-0.48,0.23,0.53,-83.69,-22.09,113.28
-0.47,0.19,0.53,-87.7,-21.34,112.57
-0.45,0.13,0.52,-92.39,-20.47,111.84
-0.43,0.04,0.51,-97.2,-19.34,111.32
-0.43,0.04,0.51,-97.2,-19.34,111.32
-0.4,-0.05,0.5,-101.55,-17.8,111.25
-0.39,-0.12,0.48,-104.92,-15.67,111.53
-0.39,-0.19,0.45,-106.83,-13.0,111.92
-0.4,-0.23,0.44,-106.86,-10.11,112.34
-0.42,-0.26,0.44,-104.9,-7.36,112.71
-0.42,-0.26,0.44,-104.9,-7.36,112.71
-0.43,-0.26,0.44,-101.18,-4.96,112.93
-0.45,-0.22,0.46,-96.32,-2.99,112.86
-0.46,-0.18,0.49,-91.15,-1.35,112.35
-0.45,-0.17,0.52,-86.43,0.15,111.46
-0.43,-0.18,0.56,-82.6,1.72,110.4
-0.43,-0.18,0.56,-82.6,1.72,110.4
-0.43,-0.2,0.58,-79.78,3.59,109.29
-0.44,-0.22,0.58,-77.76,5.79,108.11
-0.47,-0.24,0.56,-76.14,8.14,106.74
-0.47,-0.26,0.56,-74.59,10.33,105.01
-0.48,-0.27,0.56,-72.88,12.16,102.98
-0.48,-0.27,0.56,-72.88,12.16,102.98
-0.49,-0.27,0.56,-70.99,13.47,100.85
-0.51,-0.25,0.55,-69.02,14.27,98.71
-0.53,-0.24,0.56,-67.08,14.66,96.57
-0.53,-0.24,0.57,-65.29,14.73,94.61
-0.51,-0.25,0.59,-63.81,14.67,92.98
-0.51,-0.25,0.59,-63.81,14.67,92.98
-0.5,-0.27,0.6,-62.71,14.75,91.84
-0.5,-0.3,0.6,-61.89,15.15,91.19
-0.51,-0.33,0.6,-61.06,15.81,90.81
-0.51,-0.37,0.59,-59.88,16.64,90.61
-0.52,-0.39,0.58,-58.13,17.5,90.39
-0.52,-0.39,0.58,-58.13,17.5,90.39
-0.52,-0.4,0.58,-55.65,18.24,89.98
-0.53,-0.38,0.58,-52.53,18.82,89.27
-0.53,-0.36,0.6,-49.11,19.2,88.17
-0.51,-0.34,0.63,-45.78,19.44,86.84
-0.49,-0.34,0.67,-42.98,19.81,85.54
-0.49,-0.34,0.67,-42.98,19.81,85.54
-0.49,-0.34,0.69,-40.95,20.51,84.35
-0.51,-0.36,0.7,-39.69,21.5,83.16
-0.52,-0.39,0.7,-38.87,22.6,81.83
-0.54,-0.41,0.7,-38.1,23.6,80.33
-0.53,-0.42,0.71,-37.14,24.26,78.54
-0.53,-0.42,0.71,-37.14,24.26,78.54
-0.52,-0.42,0.72,-35.97,24.63,76.38
-0.52,-0.41,0.73,-34.68,24.79,73.92
-0.52,-0.4,0.74,-33.36,24.74,71.15
-0.51,-0.39,0.76,-32.14,24.51,68.24
-0.49,-0.39,0.79,-31.2,24.24,65.44
-0.49,-0.39,0.79,-31.2,24.24,65.44
-0.47,-0.41,0.82,-30.66,24.15,62.97
-0.48,-0.44,0.83,-30.37,24.45,60.84
-0.5,-0.46,0.81,-30.06,25.08,58.85
-0.52,-0.48,0.8,-29.33,25.78,56.7
-0.53,-0.48,0.8,-27.85,26.22,54.28
-0.53,-0.48,0.8,-27.85,26.22,54.28
-0.53,-0.47,0.82,-25.64,26.31,51.59
-0.51,-0.43,0.85,-23.03,26.17,48.66
-0.5,-0.4,0.88,-20.47,26.03,45.59
-0.5,-0.38,0.9,-18.32,26.01,42.57
-0.51,-0.36,0.92,-16.72,26.06,39.79
-0.51,-0.36,0.92,-16.72,26.06,39.79
-0.53,-0.36,0.93,-15.61,26.07,37.32
-0.54,-0.37,0.94,-14.87,25.93,35.21
-0.57,-0.38,0.94,-14.3,25.55,33.36
-0.59,-0.39,0.93,-13.68,24.84,31.69
-0.61,-0.39,0.94,-12.76,23.72,30.15
-0.61,-0.39,0.94,-12.76,23.72,30.15
-0.62,-0.38,0.95,-11.51,22.13,28.73
-0.63,-0.36,0.97,-10.08,20.18,27.37
-0.63,-0.34,0.98,-8.69,18.04,26.04
-0.63,-0.34,1.0,-7.4,15.68,24.74
-0.63,-0.33,1.01,-6.39,13.2,23.52
-0.63,-0.33,1.01,-6.39,13.2,23.52
-0.64,-0.33,1.02,-5.71,10.75,22.35
-0.65,-0.34,1.02,-5.3,8.5,21.13
-0.66,-0.36,1.01,-4.97,6.24,19.82
-0.66,-0.37,1.01,-4.5,3.86,18.39
-0.65,-0.38,1.01,-3.79,1.36,16.98
-0.65,-0.38,1.01,-3.79,1.36,16.98
-0.63,-0.38,1.02,-2.85,-1.15,15.7
-0.61,-0.37,1.02,-1.73,-3.58,14.63
-0.59,-0.36,1.01,-0.53,-5.86,13.89
-0.56,-0.35,1.01,0.77,-7.92,13.53
-0.53,-0.34,1.01,2.18,-9.69,13.52
-0.53,-0.34,1.01,2.18,-9.69,13.52
-0.5,-0.33,1.01,3.77,-11.01,13.8
-0.47,-0.32,1.01,5.65,-11.67,14.37
-0.47,-0.31,1.01,7.74,-11.58,15.05
-0.47,-0.3,1.01,9.95,-10.52,15.54
-0.48,-0.31,1.01,12.36,-8.46,15.75
-0.48,-0.31,1.01,12.36,-8.46,15.75
-0.52,-0.31,1.03,14.98,-5.73,15.84
-0.58,-0.29,1.06,17.51,-2.79,15.63
-0.66,-0.28,1.08,19.62,-0.03,14.57
-0.72,-0.27,1.08,21.25,2.06,12.35
-0.75,-0.26,1.08,22.44,2.98,9.14
-0.75,-0.26,1.08,22.44,2.98,9.14
-0.76,-0.24,1.1,23.04,2.36,5.16
-0.75,-0.22,1.12,22.88,0.29,0.7
-0.72,-0.2,1.12,21.76,-2.84,-4.0
-0.69,-0.2,1.1,19.65,-6.5,-8.89
-0.66,-0.22,1.08,16.75,-10.27,-13.94
-0.66,-0.22,1.08,16.75,-10.27,-13.94
-0.63,-0.25,1.04,13.44,-13.92,-19.03
-0.6,-0.26,1.01,10.17,-17.36,-24.19
-0.57,-0.27,0.98,7.29,-20.49,-29.31
-0.54,-0.27,0.95,4.78,-23.33,-34.27
-0.5,-0.28,0.92,2.75,-25.76,-38.96
-0.5,-0.28,0.92,2.75,-25.76,-38.96
-0.48,-0.29,0.88,1.41,-27.66,-43.17
-0.45,-0.3,0.85,0.82,-29.16,-46.8
-0.43,-0.3,0.82,0.99,-30.26,-49.88
-0.41,-0.3,0.78,2.01,-30.97,-52.34
-0.4,-0.3,0.76,3.87,-31.28,-54.16
-0.4,-0.3,0.76,3.87,-31.28,-54.16
-0.4,-0.29,0.75,6.42,-31.28,-55.44
-0.41,-0.28,0.74,9.45,-31.07,-56.43
-0.41,-0.26,0.74,12.9,-30.77,-57.33
-0.41,-0.24,0.73,16.55,-30.64,-58.26
-0.41,-0.2,0.74,20.05,-30.88,-59.28
-0.41,-0.2,0.74,20.05,-30.88,-59.28
-0.39,-0.17,0.75,23.04,-31.44,-60.36
-0.37,-0.16,0.76,25.21,-31.95,-61.59
-0.34,-0.16,0.76,26.39,-31.89,-63.07
-0.32,-0.17,0.75,26.69,-30.94,-64.74
-0.33,-0.19,0.72,26.47,-29.07,-66.52
-0.33,-0.19,0.72,26.47,-29.07,-66.52
-0.35,-0.2,0.7,26.22,-26.53,-68.34
-0.36,-0.21,0.67,26.33,-23.73,-70.31
-0.38,-0.21,0.65,26.95,-21.11,-72.32
-0.4,-0.19,0.64,28.19,-19.05,-74.31
-0.4,-0.19,0.64,29.85,-17.71,-76.28
-0.4,-0.17,0.64,29.85,-17.71,-76.28
-0.4,-0.15,0.63,31.57,-16.93,-78.34
-0.39,-0.13,0.63,33.24,-16.46,-80.58
-0.39,-0.12,0.64,34.87,-16.23,-83.09
-0.4,-0.1,0.66,36.38,-16.22,-86.1
-0.4,-0.1,0.66,37.52,-16.31,-89.77
-0.41,-0.09,0.68,37.52,-16.31,-89.77
-0.42,-0.08,0.7,38.02,-16.43,-94.17
-0.43,-0.07,0.72,37.66,-16.58,-99.39
-0.43,-0.07,0.73,36.2,-16.51,-105.37
-0.41,-0.09,0.71,33.61,-15.98,-112.07
-0.41,-0.09,0.71,33.61,-15.98,-112.07
-0.37,-0.13,0.67,30.28,-14.45,-119.31
-0.33,-0.14,0.62,27.02,-11.97,-126.45
-0.32,-0.13,0.58,24.39,-8.86,-132.92
-0.33,-0.11,0.55,22.46,-4.84,-138.52
-0.35,-0.1,0.53,21.19,-0.03,-143.14
-0.35,-0.1,0.53,21.19,-0.03,-143.14
-0.4,-0.08,0.51,20.68,5.5,-146.81
-0.46,-0.06,0.49,21.22,11.36,-149.54
-0.51,-0.03,0.49,23.18,16.61,-151.17
-0.54,0.01,0.5,26.4,21.05,-151.68
-0.54,0.05,0.51,30.38,24.77,-151.1
-0.54,0.05,0.51,30.38,24.77,-151.1
-0.54,0.09,0.52,34.91,27.77,-149.3
-0.53,0.14,0.53,40.02,30.12,-146.41
-0.54,0.19,0.55,45.48,32.02,-142.53
-0.57,0.25,0.6,50.77,33.57,-137.77
-0.6,0.31,0.66,55.37,35.03,-132.44
-0.6,0.31,0.66,55.37,35.03,-132.44
-0.63,0.35,0.72,58.78,36.74,-126.84
-0.67,0.36,0.77,60.77,38.9,-121.21
-0.71,0.35,0.8,61.39,41.33,-115.61
-0.75,0.33,0.8,61.16,43.56,-110.09
-0.77,0.31,0.78,60.82,44.93,-104.72
-0.77,0.31,0.78,60.82,44.93,-104.72
-0.77,0.31,0.76,60.97,44.99,-99.42
-0.75,0.33,0.75,61.82,43.55,-94.19
-0.71,0.36,0.75,63.31,40.71,-89.03
-0.67,0.41,0.76,65.09,36.85,-83.95
-0.64,0.46,0.77,66.74,32.35,-78.86
-0.64,0.46,0.77,66.74,32.35,-78.86
-0.61,0.51,0.8,67.66,27.65,-73.76
-0.58,0.56,0.81,67.28,23.12,-68.61
-0.56,0.57,0.82,65.22,19.1,-63.44
-0.53,0.55,0.8,61.45,16.0,-58.34
-0.51,0.5,0.79,56.35,13.9,-53.32
-0.51,0.5,0.79,56.35,13.9,-53.32
-0.5,0.43,0.78,50.58,12.7,-48.35
-0.5,0.36,0.76,44.88,12.17,-43.5
-0.51,0.3,0.72,40.02,11.88,-38.93
-0.5,0.26,0.68,36.43,11.39,-34.73
-0.48,0.24,0.67,34.22,10.32,-30.9
-0.48,0.24,0.67,34.22,10.32,-30.9
-0.45,0.25,0.69,33.13,8.53,-27.41
-0.42,0.27,0.73,32.55,6.28,-24.1
-0.39,0.29,0.78,31.62,4.17,-20.77
-0.39,0.3,0.81,29.65,2.61,-17.46
-0.41,0.29,0.82,26.36,1.82,-14.32
-0.41,0.29,0.82,26.36,1.82,-14.32
-0.44,0.25,0.81,21.87,1.62,-11.5
-0.47,0.2,0.8,16.72,1.68,-9.13
-0.49,0.14,0.77,11.8,1.55,-7.18
-0.48,0.08,0.74,7.86,1.07,-5.57
-0.45,0.05,0.7,5.29,0.1,-4.31
-0.45,0.05,0.7,5.29,0.1,-4.31
-0.42,0.04,0.67,4.3,-1.08,-3.34
-0.39,0.05,0.66,4.77,-2.28,-2.57
-0.35,0.08,0.68,6.19,-3.41,-1.84
-0.33,0.12,0.7,7.77,-4.26,-1.1
-0.31,0.15,0.74,8.81,-4.34,-0.36
-0.31,0.15,0.74,8.81,-4.34,-0.36
-0.32,0.15,0.78,8.82,-3.38,0.42
-0.34,0.12,0.8,7.54,-1.35,1.21
-0.38,0.07,0.8,5.36,1.42,1.99
-0.41,0.01,0.78,3.13,4.28,2.71
-0.43,-0.06,0.77,1.61,6.5,3.53
-0.43,-0.06,0.77,1.61,6.5,3.53
-0.44,-0.1,0.75,1.3,7.71,4.55
-0.43,-0.11,0.73,2.49,7.97,5.6
-0.42,-0.07,0.72,5.16,7.28,6.39
-0.41,-0.0,0.75,8.75,5.75,6.75
-0.4,0.08,0.79,12.19,3.85,6.76
-0.4,0.08,0.79,12.19,3.85,6.76
-0.38,0.15,0.85,14.43,2.24,6.55
-0.37,0.19,0.89,14.69,1.47,6.15
-0.37,0.19,0.92,12.69,1.88,5.65
-0.38,0.14,0.9,8.75,3.25,5.14
-0.4,0.05,0.86,3.73,5.06,4.72
-0.4,0.05,0.86,3.73,5.06,4.72
-0.43,-0.04,0.81,-1.13,6.62,4.43
-0.44,-0.1,0.76,-4.7,7.37,4.11
-0.43,-0.13,0.72,-6.2,7.25,3.72
-0.41,-0.11,0.72,-5.74,6.38,3.38
-0.37,-0.07,0.75,-4.06,5.07,3.1
-0.37,-0.07,0.75,-4.06,5.07,3.1
-0.34,-0.01,0.79,-2.14,4.0,2.84
-0.33,0.03,0.84,-0.84,3.73,2.66
-0.35,0.05,0.87,-0.76,4.57,2.52
-0.39,0.03,0.87,-1.97,6.38,2.39
-0.43,-0.01,0.85,-3.98,8.69,2.29
-0.43,-0.01,0.85,-3.98,8.69,2.29
-0.46,-0.06,0.83,-6.02,10.65,2.24
-0.48,-0.1,0.82,-7.29,11.71,2.28
-0.49,-0.12,0.8,-7.39,11.75,2.4
-0.48,-0.1,0.81,-6.36,10.87,2.55
-0.45,-0.08,0.81,-4.6,9.45,2.78
-0.45,-0.08,0.81,-4.6,9.45,2.78
-0.43,-0.05,0.82,-2.66,7.98,3.11
-0.4,-0.02,0.82,-0.92,6.93,3.47
-0.4,-0.01,0.82,0.33,6.48,3.84
-0.4,-0.0,0.83,1.01,6.54,4.17
-0.41,-0.01,0.83,1.11,7.08,4.42
-0.41,-0.01,0.83,1.11,7.08,4.42
-0.42,-0.04,0.82,0.72,8.16,4.52
-0.43,-0.07,0.81,0.14,9.73,4.39
-0.45,-0.1,0.8,-0.22,11.55,4.01
-0.46,-0.11,0.79,0.03,13.31,3.47
-0.48,-0.1,0.79,0.91,14.77,2.81
-0.48,-0.1,0.79,0.91,14.77,2.81
-0.48,-0.07,0.8,2.24,15.69,2.08
-0.47,-0.03,0.82,3.61,15.9,1.37
-0.46,0.01,0.85,4.52,15.51,0.78
-0.46,0.04,0.87,4.54,14.81,0.24
-0.46,0.05,0.88,3.52,14.06,-0.21
-0.46,0.05,0.88,3.52,14.06,-0.21
-0.47,0.04,0.88,1.62,13.3,-0.49
-0.49,0.01,0.86,-0.77,12.43,-0.54
-0.49,-0.03,0.84,-3.16,11.33,-0.35
-0.5,-0.08,0.83,-5.0,10.04,0.08
-0.5,-0.11,0.81,-5.94,8.65,0.67
-0.5,-0.11,0.81,-5.94,8.65,0.67
-0.49,-0.12,0.79,-5.81,7.23,1.21
-0.48,-0.12,0.78,-4.62,5.79,1.6
-0.47,-0.09,0.79,-2.62,4.31,1.87
-0.46,-0.05,0.82,-0.41,2.99,1.99
