ax,ay,az,gx,gy,gz
0.1,0.38,0.94,6.66,34.52,18.52
0.07,0.4,0.94,7.53,35.62,17.5
0.04,0.41,0.94,7.97,35.51,16.57
0.02,0.42,0.95,8.11,34.17,15.73
0.01,0.43,0.96,7.95,31.62,14.97
0.01,0.43,0.96,7.95,31.62,14.97
0.01,0.44,0.97,7.38,28.03,14.33
0.03,0.45,0.98,6.37,23.79,13.77
0.06,0.44,0.98,4.9,19.37,13.14
0.09,0.43,0.98,3.05,15.2,12.5
0.11,0.41,0.97,1.01,11.65,11.86
0.11,0.41,0.97,1.01,11.65,11.86
0.11,0.39,0.96,-0.92,8.81,11.19
0.12,0.37,0.95,-2.56,6.63,10.43
0.13,0.36,0.94,-3.73,5.13,9.58
0.14,0.35,0.93,-4.32,4.28,8.69
0.14,0.36,0.93,-4.38,4.05,7.79
0.14,0.36,0.93,-4.38,4.05,7.79
0.12,0.37,0.93,-3.94,4.4,6.85
0.11,0.38,0.93,-3.12,5.19,5.89
0.1,0.39,0.93,-2.04,6.24,4.9
0.09,0.4,0.93,-0.7,7.4,3.95
0.08,0.42,0.93,0.74,8.5,3.04
0.08,0.42,0.93,0.74,8.5,3.04
0.08,0.43,0.93,2.13,9.55,2.21
0.07,0.44,0.93,3.48,10.45,1.55
0.06,0.44,0.94,4.8,11.15,1.06
0.05,0.45,0.93,6.04,11.61,0.71
0.03,0.46,0.93,7.15,11.71,0.52
0.03,0.46,0.93,7.15,11.71,0.52
0.02,0.47,0.93,8.07,11.33,0.45
0.02,0.48,0.94,8.76,10.52,0.47
0.03,0.49,0.94,9.11,9.3,0.54
0.03,0.49,0.94,9.07,7.84,0.59
0.04,0.49,0.93,8.61,6.28,0.65
0.04,0.49,0.93,8.61,6.28,0.65
0.06,0.49,0.93,7.73,4.72,0.76
0.07,0.48,0.93,6.54,3.34,0.87
0.08,0.46,0.93,5.18,2.38,0.96
0.08,0.45,0.93,3.72,1.82,0.96
0.09,0.43,0.92,2.38,1.72,0.87
0.09,0.43,0.92,2.38,1.72,0.87
0.1,0.41,0.92,1.28,2.05,0.71
0.11,0.39,0.92,0.54,2.83,0.54
0.11,0.38,0.92,0.2,3.89,0.38
0.11,0.37,0.93,0.33,5.01,0.34
0.1,0.36,0.94,0.9,6.11,0.48
0.1,0.36,0.94,0.9,6.11,0.48
0.1,0.35,0.96,1.88,7.11,0.79
0.08,0.34,0.99,3.15,8.01,1.17
0.06,0.33,1.01,4.47,8.7,1.43
0.04,0.32,1.03,5.88,9.02,1.41
0.05,0.31,1.06,7.35,8.94,1.1
0.05,0.31,1.06,7.35,8.94,1.1
0.07,0.3,1.09,8.77,8.56,0.54
0.07,0.29,1.11,9.95,7.97,-0.21
0.08,0.28,1.12,10.82,7.14,-1.13
0.09,0.26,1.14,11.37,6.14,-2.16
0.11,0.22,1.18,11.64,5.05,-3.25
0.11,0.22,1.18,11.64,5.05,-3.25
0.15,0.17,1.25,11.76,4.18,-4.28
0.19,0.1,1.31,11.82,3.81,-5.08
0.21,0.03,1.35,11.91,4.18,-5.75
0.2,-0.03,1.38,12.26,5.11,-6.65
0.16,-0.09,1.39,13.2,6.24,-8.08
0.16,-0.09,1.39,13.2,6.24,-8.08
0.09,-0.12,1.37,14.98,6.98,-10.42
0.03,-0.15,1.34,17.84,6.74,-14.02
-0.01,-0.13,1.3,21.75,4.91,-18.73
-0.03,-0.08,1.28,26.42,1.12,-24.39
-0.03,-0.0,1.26,31.25,-4.53,-30.73
-0.03,-0.0,1.26,31.25,-4.53,-30.73
-0.0,0.08,1.25,35.39,-11.68,-37.33
0.03,0.14,1.26,38.22,-19.72,-43.77
0.06,0.19,1.26,39.27,-27.98,-49.79
0.07,0.22,1.26,38.21,-35.86,-55.29
0.07,0.25,1.23,35.05,-42.92,-60.3
0.07,0.25,1.23,35.05,-42.92,-60.3
0.05,0.26,1.19,30.19,-49.02,-65.12
0.03,0.27,1.14,24.06,-54.21,-69.95
0.02,0.25,1.09,17.29,-58.62,-74.73
0.03,0.23,1.03,10.33,-62.38,-79.2
0.04,0.21,0.98,3.58,-65.5,-83.21
0.04,0.21,0.98,3.58,-65.5,-83.21
0.07,0.18,0.94,-2.44,-67.88,-86.67
0.09,0.14,0.91,-7.41,-69.34,-89.51
0.07,0.12,0.87,-11.16,-69.75,-91.88
0.04,0.12,0.82,-13.5,-69.3,-94.14
-0.01,0.13,0.78,-14.25,-68.27,-96.44
-0.01,0.13,0.78,-14.25,-68.27,-96.44
-0.06,0.16,0.74,-13.39,-67.08,-98.81
-0.1,0.19,0.71,-11.24,-66.05,-101.44
-0.13,0.23,0.7,-8.14,-65.21,-104.44
-0.15,0.27,0.7,-4.27,-64.44,-107.88
-0.18,0.34,0.72,0.26,-63.47,-111.79
-0.18,0.34,0.72,0.26,-63.47,-111.79
-0.23,0.42,0.75,5.06,-62.15,-116.06
-0.26,0.51,0.77,9.55,-60.7,-120.4
-0.27,0.58,0.8,13.2,-59.42,-124.4
-0.25,0.64,0.81,15.65,-58.38,-127.61
-0.24,0.68,0.82,16.66,-57.61,-129.74
-0.24,0.68,0.82,16.66,-57.61,-129.74
-0.22,0.71,0.8,16.26,-57.07,-130.83
-0.21,0.72,0.76,14.62,-56.78,-131.02
-0.2,0.7,0.72,12.15,-56.83,-130.47
-0.17,0.67,0.7,9.39,-57.18,-129.41
-0.15,0.63,0.68,6.88,-57.58,-127.89
-0.15,0.63,0.68,6.88,-57.58,-127.89
-0.14,0.62,0.67,5.09,-57.65,-126.07
-0.15,0.61,0.66,4.17,-57.13,-124.1
-0.17,0.61,0.64,4.06,-56.08,-122.14
-0.19,0.62,0.64,4.74,-54.54,-120.35
-0.22,0.66,0.67,6.14,-52.56,-118.86
-0.22,0.66,0.67,6.14,-52.56,-118.86
-0.25,0.7,0.69,8.02,-50.15,-117.76
-0.27,0.75,0.7,9.97,-47.55,-116.97
-0.27,0.8,0.71,11.69,-44.91,-116.44
-0.28,0.84,0.72,12.98,-42.26,-115.99
-0.29,0.88,0.72,13.62,-39.85,-115.41
-0.29,0.88,0.72,13.62,-39.85,-115.41
-0.29,0.91,0.71,13.46,-37.96,-114.45
-0.27,0.91,0.69,12.45,-36.76,-112.9
-0.24,0.9,0.68,10.65,-36.18,-110.65
-0.19,0.86,0.68,8.28,-36.0,-107.75
-0.15,0.8,0.67,5.83,-35.75,-104.31
-0.15,0.8,0.67,5.83,-35.75,-104.31
-0.12,0.74,0.65,3.97,-35.29,-100.37
-0.11,0.69,0.63,3.17,-34.59,-96.15
-0.11,0.66,0.61,3.75,-33.67,-91.99
-0.12,0.65,0.6,5.8,-32.41,-88.24
-0.13,0.67,0.61,9.09,-30.81,-85.09
-0.13,0.67,0.61,9.09,-30.81,-85.09
-0.13,0.7,0.63,13.08,-28.95,-82.52
-0.13,0.75,0.65,17.16,-26.71,-80.38
-0.14,0.8,0.68,20.85,-24.14,-78.5
-0.14,0.84,0.69,23.59,-21.38,-76.62
-0.17,0.88,0.7,25.04,-18.63,-74.61
-0.17,0.88,0.7,25.04,-18.63,-74.61
-0.18,0.9,0.71,25.16,-16.08,-72.5
-0.18,0.91,0.72,23.97,-14.03,-70.3
-0.15,0.89,0.73,21.64,-12.62,-67.88
-0.13,0.86,0.74,18.37,-11.78,-65.03
-0.11,0.81,0.74,14.58,-11.28,-61.79
-0.11,0.81,0.74,14.58,-11.28,-61.79
-0.11,0.77,0.73,10.94,-10.95,-58.37
-0.12,0.73,0.71,7.99,-10.9,-55.07
-0.1,0.69,0.69,6.04,-11.25,-51.93
-0.07,0.66,0.68,5.16,-11.91,-48.96
-0.05,0.63,0.68,5.35,-12.52,-46.28
-0.05,0.63,0.68,5.35,-12.52,-46.28
-0.03,0.62,0.66,6.58,-12.98,-43.93
-0.02,0.64,0.66,8.53,-13.37,-41.9
-0.02,0.66,0.68,10.81,-13.63,-40.17
-0.02,0.69,0.69,13.12,-13.6,-38.74
-0.01,0.72,0.72,15.13,-13.22,-37.55
-0.01,0.72,0.72,15.13,-13.22,-37.55
0.0,0.74,0.76,16.44,-12.42,-36.45
0.0,0.75,0.78,16.87,-11.11,-35.26
-0.02,0.76,0.79,16.46,-9.43,-34.02
-0.05,0.76,0.79,15.44,-7.69,-32.83
-0.06,0.76,0.78,14.08,-6.22,-31.74
-0.06,0.76,0.78,14.08,-6.22,-31.74
-0.07,0.76,0.77,12.62,-5.16,-30.77
-0.08,0.77,0.75,11.21,-4.52,-29.9
-0.07,0.78,0.73,9.96,-4.3,-29.07
-0.06,0.8,0.73,8.78,-4.49,-28.2
-0.03,0.8,0.73,7.54,-4.9,-27.15
-0.03,0.8,0.73,7.54,-4.9,-27.15
-0.0,0.79,0.77,6.1,-5.2,-25.69
0.02,0.76,0.8,4.33,-5.03,-23.85
0.01,0.73,0.81,2.37,-4.18,-21.89
-0.02,0.7,0.81,0.75,-2.75,-20.18
-0.06,0.68,0.8,-0.01,-1.2,-18.93
-0.06,0.68,0.8,-0.01,-1.2,-18.93
-0.09,0.68,0.79,0.07,-0.08,-18.18
-0.09,0.71,0.8,0.73,0.4,-17.83
-0.08,0.74,0.8,1.66,0.41,-17.77
-0.06,0.76,0.81,2.45,0.25,-17.78
-0.03,0.77,0.82,2.83,0.1,-17.57
-0.03,0.77,0.82,2.83,0.1,-17.57
-0.01,0.78,0.83,2.68,0.12,-16.88
-0.0,0.77,0.84,2.0,0.42,-15.66
-0.0,0.76,0.84,0.97,0.97,-14.1
-0.01,0.73,0.85,-0.03,1.72,-12.34
-0.03,0.71,0.85,-0.71,2.51,-10.62
-0.03,0.71,0.85,-0.71,2.51,-10.62
-0.05,0.71,0.85,-0.9,3.21,-9.13
-0.06,0.72,0.85,-0.57,3.69,-7.95
-0.07,0.74,0.85,0.15,3.82,-7.03
-0.06,0.77,0.84,1.09,3.57,-6.31
-0.05,0.8,0.84,2.06,3.0,-5.67
-0.05,0.8,0.84,2.06,3.0,-5.67
-0.04,0.84,0.84,2.85,2.22,-5.06
-0.01,0.86,0.85,3.34,1.38,-4.32
0.02,0.87,0.89,3.27,0.7,-3.29
0.04,0.86,0.91,2.44,0.52,-1.85
0.02,0.85,0.92,1.05,0.95,-0.14
0.02,0.85,0.92,1.05,0.95,-0.14
-0.02,0.83,0.91,-0.38,1.7,1.55
-0.06,0.82,0.89,-1.29,2.28,3.04
-0.07,0.83,0.87,-1.41,2.28,4.27
-0.06,0.85,0.86,-0.81,1.6,5.18
-0.03,0.88,0.85,0.23,0.54,5.8
-0.03,0.88,0.85,0.23,0.54,5.8
-0.01,0.92,0.83,1.43,-0.67,6.2
-0.0,0.95,0.81,2.6,-1.95,6.41
0.01,0.98,0.79,3.74,-3.22,6.63
0.01,1.01,0.79,4.73,-4.48,6.91
0.01,1.03,0.79,5.48,-5.7,7.34
0.01,1.03,0.79,5.48,-5.7,7.34
0.01,1.04,0.78,5.94,-6.96,8.08
0.0,1.05,0.76,6.09,-8.25,9.14
-0.01,1.06,0.75,6.21,-9.53,10.49
-0.03,1.06,0.73,6.44,-11.0,12.23
-0.03,1.07,0.7,6.83,-12.75,14.38
-0.03,1.07,0.7,6.83,-12.75,14.38
-0.02,1.08,0.68,7.41,-14.72,16.85
-0.02,1.09,0.65,8.12,-16.84,19.55
-0.01,1.1,0.62,8.95,-18.99,22.42
-0.01,1.11,0.6,9.83,-21.17,25.44
0.0,1.12,0.59,10.69,-23.33,28.74
0.0,1.12,0.59,10.69,-23.33,28.74
0.01,1.12,0.59,11.34,-25.4,32.44
0.01,1.11,0.59,11.57,-27.16,36.48
0.0,1.1,0.58,11.2,-28.44,40.52
-0.01,1.08,0.59,10.46,-29.16,44.15
-0.01,1.05,0.6,9.58,-29.42,47.2
-0.01,1.05,0.6,9.58,-29.42,47.2
-0.01,1.03,0.61,8.79,-29.24,49.91
-0.02,1.02,0.61,8.18,-28.93,52.75
-0.03,1.04,0.59,7.68,-28.74,55.87
-0.04,1.06,0.58,7.16,-28.83,59.12
-0.03,1.08,0.56,6.34,-29.13,62.42
-0.03,1.08,0.56,6.34,-29.13,62.42
-0.01,1.1,0.56,4.88,-29.5,65.75
0.01,1.11,0.57,2.44,-29.74,69.35
0.04,1.1,0.59,-1.32,-29.43,73.42
0.06,1.07,0.61,-6.52,-28.25,77.91
0.07,1.02,0.64,-12.9,-25.85,82.62
0.07,1.02,0.64,-12.9,-25.85,82.62
0.07,0.96,0.65,-19.88,-21.96,87.28
0.05,0.88,0.63,-26.67,-16.62,91.61
0.02,0.82,0.6,-32.51,-10.34,95.31
-0.02,0.76,0.56,-36.75,-3.8,98.26
-0.06,0.74,0.53,-39.02,2.44,100.45
-0.06,0.74,0.53,-39.02,2.44,100.45
-0.06,0.72,0.52,-39.43,8.07,102.04
-0.03,0.72,0.52,-38.52,13.05,103.42
0.01,0.72,0.55,-36.98,17.63,105.0
0.03,0.72,0.57,-35.43,22.28,106.91
0.03,0.7,0.59,-34.26,27.21,109.13
0.03,0.7,0.59,-34.26,27.21,109.13
0.0,0.67,0.6,-33.59,32.26,111.53
-0.03,0.65,0.62,-33.35,37.24,113.84
-0.07,0.61,0.64,-33.47,41.99,115.72
-0.08,0.58,0.66,-33.72,46.37,116.95
-0.1,0.55,0.67,-33.89,50.44,117.53
-0.1,0.55,0.67,-33.89,50.44,117.53
-0.11,0.53,0.69,-33.93,54.24,117.54
-0.11,0.52,0.72,-33.92,57.82,117.26
-0.12,0.52,0.75,-34.09,61.29,116.76
-0.14,0.51,0.77,-34.7,64.62,115.99
-0.14,0.48,0.79,-35.72,67.53,115.0
-0.14,0.48,0.79,-35.72,67.53,115.0
-0.14,0.45,0.81,-36.97,69.61,114.05
-0.14,0.42,0.82,-38.24,70.74,113.35
-0.14,0.39,0.83,-39.36,70.95,112.89
-0.14,0.35,0.83,-40.16,70.27,112.49
-0.14,0.32,0.81,-40.49,68.87,111.9
-0.14,0.32,0.81,-40.49,68.87,111.9
-0.12,0.28,0.82,-40.15,66.96,110.84
-0.1,0.25,0.82,-39.21,64.75,109.38
-0.06,0.21,0.84,-37.77,62.62,107.6
-0.04,0.18,0.85,-35.81,60.87,105.62
-0.01,0.15,0.87,-33.43,59.64,103.46
-0.01,0.15,0.87,-33.43,59.64,103.46
0.02,0.12,0.9,-30.71,58.96,101.29
0.03,0.1,0.92,-27.83,58.92,99.08
0.01,0.09,0.92,-24.88,59.39,96.67
-0.02,0.09,0.91,-22.04,59.99,94.02
-0.02,0.09,0.91,-19.31,60.42,91.14
-0.03,0.09,0.89,-19.31,60.42,91.14
-0.03,0.11,0.88,-16.58,60.42,87.99
-0.02,0.13,0.89,-13.95,59.96,84.62
0.0,0.13,0.91,-11.68,59.2,81.29
0.03,0.12,0.94,-10.02,58.31,78.35
0.03,0.12,0.94,-8.93,57.54,75.98
0.04,0.08,0.96,-8.93,57.54,75.98
0.03,0.05,0.98,-8.26,56.97,74.11
-0.0,0.04,0.99,-7.76,56.7,72.39
-0.04,0.03,0.98,-7.31,56.54,70.36
-0.06,0.03,0.98,-6.91,56.31,67.94
-0.06,0.03,0.98,-6.59,55.96,65.3
-0.06,0.03,0.97,-6.59,55.96,65.3
-0.06,0.05,0.96,-6.48,55.54,62.52
-0.05,0.06,0.96,-6.63,55.17,59.57
-0.05,0.07,0.97,-6.97,55.0,56.55
-0.06,0.07,0.98,-7.51,55.19,53.6
-0.06,0.07,0.98,-7.51,55.19,53.6
-0.08,0.06,0.98,-8.2,55.82,50.89
-0.1,0.05,0.99,-8.75,56.87,48.53
-0.13,0.03,1.0,-9.02,57.99,46.5
-0.16,0.03,1.0,-9.02,58.89,44.6
-0.18,0.04,1.01,-8.59,59.48,42.79
-0.18,0.04,1.01,-8.59,59.48,42.79
-0.2,0.06,1.01,-7.78,59.5,41.09
-0.19,0.08,1.02,-6.85,58.89,39.43
-0.18,0.1,1.02,-5.95,57.72,37.81
-0.17,0.12,1.02,-5.25,56.19,36.23
-0.16,0.14,1.03,-4.86,54.48,34.69
-0.16,0.14,1.03,-4.86,54.48,34.69
-0.16,0.15,1.03,-4.86,52.68,33.18
-0.16,0.15,1.05,-5.33,50.81,31.77
-0.16,0.14,1.06,-6.21,48.93,30.47
-0.18,0.13,1.07,-7.41,47.22,29.28
-0.19,0.13,1.08,-8.78,45.58,28.08
-0.19,0.13,1.08,-8.78,45.58,28.08
-0.2,0.13,1.08,-10.14,43.94,26.77
-0.2,0.12,1.08,-11.41,42.2,25.41
-0.18,0.12,1.07,-12.48,40.29,24.07
-0.16,0.12,1.07,-13.31,38.23,22.77
-0.13,0.13,1.07,-13.81,36.17,21.58
-0.13,0.13,1.07,-13.81,36.17,21.58
-0.11,0.13,1.07,-13.98,34.17,20.53
-0.1,0.14,1.06,-13.86,32.27,19.69
-0.09,0.13,1.07,-13.45,30.42,19.15
-0.08,0.13,1.08,-12.81,28.73,18.89
-0.07,0.12,1.09,-11.97,27.24,18.85
-0.07,0.12,1.09,-11.97,27.24,18.85
-0.07,0.12,1.1,-10.99,25.94,18.96
-0.07,0.13,1.1,-9.95,24.84,19.11
-0.07,0.13,1.1,-9.0,23.84,19.04
-0.06,0.14,1.09,-8.15,22.81,18.53
-0.04,0.14,1.1,-7.37,21.78,17.65
-0.04,0.14,1.1,-7.37,21.78,17.65
-0.02,0.15,1.11,-6.66,20.76,16.59
-0.0,0.16,1.13,-6.08,19.8,15.54
0.0,0.17,1.15,-5.69,18.89,14.61
-0.01,0.18,1.17,-5.66,17.97,13.9
-0.02,0.18,1.19,-6.02,16.9,13.35
-0.02,0.18,1.19,-6.02,16.9,13.35
-0.04,0.17,1.21,-6.75,15.69,12.92
-0.04,0.16,1.21,-7.75,14.36,12.53
-0.04,0.14,1.22,-8.87,12.92,12.1
-0.04,0.14,1.22,-9.94,11.34,11.53
-0.03,0.13,1.22,-10.84,9.6,10.76
-0.03,0.13,1.22,-10.84,9.6,10.76
-0.01,0.12,1.23,-11.52,7.72,9.84
0.01,0.11,1.23,-12.06,5.79,8.97
0.01,0.11,1.24,-12.5,3.86,8.15
0.01,0.1,1.25,-12.87,1.99,7.32
0.01,0.08,1.25,-13.09,0.2,6.38
0.01,0.08,1.25,-13.09,0.2,6.38
0.01,0.07,1.26,-13.13,-1.48,5.27
0.01,0.06,1.26,-13.0,-3.0,4.04
0.01,0.04,1.26,-12.71,-4.35,2.73
0.0,0.03,1.26,-12.28,-5.54,1.33
0.0,0.02,1.26,-11.67,-6.59,-0.13
0.0,0.02,1.26,-11.67,-6.59,-0.13
0.0,0.01,1.26,-10.94,-7.69,-1.68
0.0,0.0,1.26,-10.16,-8.91,-3.38
-0.0,0.0,1.26,-9.39,-10.38,-5.24
-0.0,0.02,1.25,-8.69,-12.23,-7.34
0.01,0.03,1.24,-8.18,-14.55,-9.63
0.01,0.03,1.24,-8.18,-14.55,-9.63
0.02,0.05,1.25,-8.04,-17.38,-11.98
0.02,0.06,1.25,-8.54,-20.7,-14.28
0.02,0.07,1.26,-9.91,-24.3,-16.64
0.03,0.05,1.27,-12.16,-27.94,-19.16
0.04,0.03,1.27,-15.25,-31.35,-21.89
0.04,0.03,1.27,-15.25,-31.35,-21.89
0.05,-0.0,1.26,-18.82,-34.34,-24.97
0.06,-0.03,1.23,-22.4,-36.68,-28.58
0.08,-0.06,1.2,-25.36,-38.3,-32.63
0.09,-0.07,1.16,-27.27,-39.3,-36.94
0.1,-0.06,1.12,-28.03,-39.78,-41.4
0.1,-0.06,1.12,-28.03,-39.78,-41.4
0.1,-0.03,1.1,-27.47,-39.86,-45.85
0.1,0.01,1.09,-25.58,-39.58,-50.02
0.11,0.05,1.08,-22.69,-38.92,-53.7
0.11,0.09,1.08,-19.05,-37.95,-56.65
0.11,0.12,1.09,-14.99,-36.66,-58.69
0.11,0.12,1.09,-14.99,-36.66,-58.69
0.11,0.13,1.1,-10.78,-35.11,-59.8
0.1,0.14,1.1,-6.5,-33.36,-60.03
0.08,0.15,1.09,-2.18,-31.54,-59.57
0.06,0.16,1.08,2.16,-29.84,-58.67
0.04,0.17,1.07,6.55,-28.36,-57.68
0.04,0.17,1.07,6.55,-28.36,-57.68
0.03,0.18,1.05,10.95,-27.1,-56.9
0.04,0.2,1.03,15.32,-26.01,-56.51
0.04,0.21,1.01,19.62,-25.07,-56.45
0.04,0.23,1.0,23.82,-24.3,-56.55
0.03,0.25,0.99,27.76,-23.65,-56.67
0.03,0.25,0.99,27.76,-23.65,-56.67
0.01,0.27,0.99,31.31,-23.16,-56.67
-0.03,0.3,0.99,34.19,-22.94,-56.6
-0.06,0.33,0.97,36.23,-22.95,-56.76
-0.09,0.36,0.95,37.46,-23.24,-57.5
-0.09,0.4,0.93,37.91,-23.97,-58.94
-0.09,0.4,0.93,37.91,-23.97,-58.94
-0.08,0.44,0.91,37.53,-25.29,-60.96
-0.06,0.46,0.9,36.24,-27.05,-63.33
-0.02,0.47,0.89,34.0,-28.96,-65.7
-0.01,0.47,0.88,30.99,-30.55,-67.82
0.0,0.45,0.86,27.55,-31.46,-69.62
0.0,0.45,0.86,27.55,-31.46,-69.62
0.0,0.42,0.84,24.21,-31.56,-70.99
-0.0,0.38,0.81,21.38,-30.8,-71.86
-0.01,0.35,0.78,19.51,-29.35,-72.29
-0.04,0.33,0.74,18.96,-27.35,-72.42
-0.07,0.35,0.71,19.83,-25.12,-72.56
-0.07,0.35,0.71,19.83,-25.12,-72.56
-0.1,0.38,0.69,22.03,-23.02,-73.02
-0.11,0.43,0.7,25.26,-21.28,-73.85
-0.09,0.48,0.73,29.04,-19.86,-74.99
-0.08,0.54,0.77,32.67,-18.54,-76.13
-0.08,0.59,0.82,35.28,-17.04,-77.04
-0.08,0.59,0.82,35.28,-17.04,-77.04
-0.11,0.64,0.85,36.15,-15.23,-77.47
-0.16,0.67,0.87,34.77,-13.04,-77.6
-0.22,0.69,0.86,31.14,-10.82,-77.91
-0.26,0.69,0.84,25.65,-9.04,-78.8
-0.26,0.68,0.79,19.05,-8.02,-80.36
-0.26,0.68,0.79,19.05,-8.02,-80.36
-0.22,0.66,0.75,12.04,-7.85,-82.32
-0.18,0.65,0.75,5.0,-8.31,-84.19
-0.14,0.65,0.75,-1.99,-8.73,-85.67
-0.12,0.67,0.75,-8.65,-8.59,-86.66
-0.12,0.67,0.76,-14.64,-7.75,-87.07
-0.12,0.67,0.76,-14.64,-7.75,-87.07
-0.12,0.67,0.76,-20.01,-6.19,-86.74
-0.14,0.67,0.77,-24.91,-4.12,-85.61
-0.17,0.65,0.77,-29.37,-1.87,-83.88
-0.2,0.62,0.75,-33.16,0.32,-82.07
-0.23,0.59,0.73,-35.81,2.2,-80.53
-0.23,0.59,0.73,-35.81,2.2,-80.53
-0.26,0.55,0.71,-36.88,3.5,-79.4
-0.27,0.52,0.68,-36.21,3.98,-78.57
-0.26,0.5,0.65,-33.73,3.64,-77.83
-0.25,0.49,0.63,-29.48,2.54,-76.99
-0.23,0.51,0.63,-23.62,0.82,-75.86
-0.23,0.51,0.63,-23.62,0.82,-75.86
-0.22,0.54,0.64,-16.52,-1.36,-74.26
-0.21,0.58,0.65,-8.7,-3.7,-72.14
-0.18,0.62,0.67,-0.67,-5.94,-69.52
-0.14,0.65,0.71,7.08,-7.92,-66.46
-0.12,0.68,0.74,14.07,-9.34,-63.05
-0.12,0.68,0.74,14.07,-9.34,-63.05
-0.12,0.69,0.76,20.02,-9.94,-59.37
-0.16,0.7,0.76,25.01,-9.78,-55.65
-0.2,0.71,0.74,29.15,-9.25,-52.11
-0.24,0.72,0.7,32.48,-8.9,-48.86
-0.25,0.74,0.66,34.92,-9.24,-45.96
-0.25,0.74,0.66,34.92,-9.24,-45.96
-0.24,0.77,0.65,36.33,-10.49,-43.39
-0.21,0.78,0.65,36.47,-12.6,-41.13
-0.15,0.8,0.66,35.19,-15.23,-39.11
-0.09,0.8,0.7,32.58,-17.79,-37.2
-0.03,0.79,0.75,28.7,-19.61,-35.21
-0.03,0.79,0.75,28.7,-19.61,-35.21
-0.01,0.75,0.79,23.69,-20.15,-33.02
-0.03,0.7,0.79,18.03,-19.11,-30.77
-0.08,0.64,0.75,12.68,-16.83,-28.59
-0.12,0.59,0.7,8.46,-14.2,-26.62
-0.13,0.55,0.65,5.86,-12.04,-24.87
-0.13,0.55,0.65,5.86,-12.04,-24.87
-0.12,0.54,0.64,4.8,-10.82,-23.22
-0.09,0.56,0.66,4.88,-10.44,-21.69
-0.05,0.57,0.7,5.7,-10.37,-20.3
-0.02,0.59,0.73,6.92,-9.98,-19.03
-0.01,0.6,0.78,8.33,-8.97,-17.74
-0.01,0.6,0.78,8.33,-8.97,-17.74
-0.01,0.62,0.82,9.7,-7.27,-16.35
-0.04,0.63,0.86,10.72,-5.09,-14.84
-0.09,0.64,0.88,11.1,-2.86,-13.33
-0.13,0.64,0.87,10.8,-1.13,-11.91
-0.14,0.63,0.85,9.93,-0.46,-10.66
-0.14,0.63,0.85,9.93,-0.46,-10.66
-0.13,0.62,0.84,8.61,-1.14,-9.53
-0.1,0.61,0.85,6.95,-2.89,-8.49
-0.06,0.6,0.86,5.11,-5.12,-7.52
-0.03,0.59,0.86,3.24,-7.26,-6.65
0.0,0.58,0.87,1.41,-8.9,-5.75
0.0,0.58,0.87,1.41,-8.9,-5.75
0.02,0.56,0.89,-0.32,-9.79,-4.77
0.02,0.53,0.9,-1.83,-9.69,-3.73
-0.0,0.51,0.9,-2.87,-8.62,-2.69
-0.03,0.48,0.88,-3.18,-6.89,-1.63
-0.06,0.46,0.85,-2.59,-5.06,-0.6
-0.06,0.46,0.85,-2.59,-5.06,-0.6
-0.07,0.45,0.83,-1.15,-3.64,0.33
-0.06,0.46,0.81,1.05,-2.92,1.08
-0.04,0.47,0.81,3.76,-2.87,1.57
0.0,0.5,0.82,6.7,-3.24,1.92
0.03,0.53,0.85,9.46,-3.67,2.27
0.03,0.53,0.85,9.46,-3.67,2.27
0.05,0.56,0.9,11.56,-3.72,2.7
0.05,0.58,0.95,12.62,-2.97,3.17
0.03,0.57,0.98,12.51,-1.35,3.69
