ax,ay,az,gx,gy,gz
-0.04,0.03,0.97,-1.98,-2.22,-0.54
-0.04,0.03,0.97,-1.68,-2.23,-0.61
-0.04,0.03,0.97,-1.33,-2.14,-0.68
-0.05,0.03,0.97,-0.99,-1.91,-0.76
-0.05,0.04,0.97,-0.67,-1.57,-0.87
-0.05,0.04,0.97,-0.67,-1.57,-0.87
-0.05,0.04,0.97,-0.34,-1.16,-1.0
-0.05,0.05,0.97,-0.04,-0.67,-1.16
-0.04,0.06,0.98,0.19,-0.16,-1.25
-0.04,0.06,0.98,0.27,0.41,-1.32
-0.04,0.06,0.98,0.14,0.99,-1.38
-0.04,0.06,0.98,0.14,0.99,-1.38
-0.05,0.06,0.98,-0.15,1.54,-1.45
-0.05,0.06,0.98,-0.57,1.94,-1.56
-0.04,0.06,0.98,-1.08,2.19,-1.63
-0.04,0.06,0.98,-1.64,2.32,-1.6
-0.04,0.06,0.98,-2.21,2.34,-1.49
-0.04,0.06,0.98,-2.21,2.34,-1.49
-0.04,0.05,0.98,-2.76,2.34,-1.34
-0.04,0.05,0.98,-3.26,2.32,-1.16
-0.04,0.05,0.98,-3.63,2.32,-0.92
-0.03,0.04,0.97,-3.85,2.37,-0.64
-0.03,0.04,0.97,-3.88,2.51,-0.33
-0.03,0.04,0.97,-3.88,2.51,-0.33
-0.04,0.03,0.97,-3.69,2.68,0.02
-0.05,0.04,0.98,-3.3,2.83,0.36
-0.05,0.04,0.98,-2.76,2.89,0.65
-0.05,0.05,0.99,-2.18,2.81,0.87
-0.05,0.05,0.99,-1.73,2.6,1.03
-0.05,0.05,0.99,-1.73,2.6,1.03
-0.05,0.05,1.0,-1.5,2.24,1.19
-0.05,0.05,1.0,-1.54,1.78,1.39
-0.05,0.05,1.0,-1.72,1.39,1.53
-0.05,0.04,1.0,-1.92,1.12,1.6
-0.05,0.04,1.0,-2.12,0.98,1.57
-0.05,0.04,1.0,-2.12,0.98,1.57
-0.05,0.05,1.0,-2.23,0.95,1.47
-0.05,0.05,1.0,-2.31,0.98,1.29
-0.06,0.05,1.0,-2.37,0.99,1.07
-0.06,0.05,0.99,-2.4,0.98,0.84
-0.06,0.06,1.0,-2.34,0.98,0.61
-0.06,0.06,1.0,-2.34,0.98,0.61
-0.06,0.06,1.0,-2.21,0.93,0.41
-0.06,0.06,0.99,-2.05,0.91,0.36
-0.06,0.06,0.99,-1.89,0.77,0.44
-0.07,0.06,0.99,-1.72,0.51,0.61
-0.07,0.06,0.99,-1.54,0.1,0.82
-0.07,0.06,0.99,-1.54,0.1,0.82
-0.07,0.06,0.99,-1.34,-0.42,0.97
-0.07,0.06,0.99,-1.05,-0.97,0.98
-0.07,0.06,0.98,-0.6,-1.5,0.93
-0.06,0.07,0.98,-0.06,-1.99,0.91
-0.05,0.08,0.99,0.43,-2.41,0.96
-0.05,0.08,0.99,0.43,-2.41,0.96
-0.05,0.08,0.98,0.79,-2.75,1.12
-0.05,0.09,0.98,0.93,-3.05,1.32
-0.04,0.08,0.98,0.85,-3.28,1.53
-0.04,0.07,0.98,0.53,-3.38,1.78
-0.02,0.07,0.98,0.11,-3.33,2.05
-0.02,0.07,0.98,0.11,-3.33,2.05
-0.02,0.05,0.98,-0.31,-3.05,2.35
-0.02,0.05,0.98,-0.56,-2.46,2.61
-0.03,0.05,0.98,-0.53,-1.64,2.8
-0.04,0.05,0.98,-0.28,-0.81,2.84
-0.04,0.06,0.98,0.04,-0.03,2.78
-0.04,0.06,0.98,0.04,-0.03,2.78
-0.04,0.06,0.98,0.33,0.58,2.68
-0.03,0.07,0.99,0.52,1.05,2.63
-0.02,0.07,0.99,0.62,1.4,2.71
-0.02,0.07,0.99,0.67,1.7,2.94
-0.02,0.07,1.0,0.7,2.05,3.29
-0.02,0.07,1.0,0.7,2.05,3.29
-0.02,0.07,1.01,0.68,2.4,3.71
-0.03,0.07,1.02,0.57,2.74,4.16
-0.03,0.07,1.02,0.36,3.02,4.57
-0.03,0.06,1.02,0.04,3.26,4.94
-0.03,0.05,1.02,-0.35,3.44,5.29
-0.03,0.05,1.02,-0.35,3.44,5.29
-0.03,0.04,1.02,-0.76,3.57,5.64
-0.03,0.04,1.02,-1.07,3.61,6.03
-0.04,0.04,1.02,-1.26,3.61,6.41
-0.04,0.03,1.02,-1.33,3.56,6.73
-0.05,0.03,1.02,-1.31,3.37,7.01
-0.05,0.03,1.02,-1.31,3.37,7.01
-0.05,0.03,1.03,-1.3,3.03,7.25
-0.05,0.03,1.03,-1.32,2.54,7.35
-0.05,0.02,1.03,-1.37,1.95,7.29
-0.05,0.02,1.04,-1.41,1.33,7.08
-0.04,0.02,1.04,-1.41,0.77,6.79
-0.04,0.02,1.04,-1.41,0.77,6.79
-0.04,0.02,1.03,-1.36,0.35,6.46
-0.04,0.02,1.03,-1.29,0.04,6.13
-0.05,0.02,1.03,-1.23,-0.25,5.86
-0.05,0.02,1.03,-1.22,-0.59,5.65
-0.05,0.02,1.03,-1.24,-1.01,5.47
-0.05,0.02,1.03,-1.24,-1.01,5.47
-0.05,0.01,1.02,-1.22,-1.52,5.38
-0.05,0.01,1.02,-1.13,-2.15,5.38
-0.04,0.01,1.02,-0.99,-2.8,5.52
-0.04,0.01,1.03,-0.86,-3.5,5.77
-0.04,0.0,1.03,-0.78,-4.19,6.02
-0.04,0.0,1.03,-0.78,-4.19,6.02
-0.05,-0.01,1.04,-0.86,-4.86,6.17
-0.05,-0.02,1.03,-1.18,-5.46,6.22
-0.04,-0.03,1.03,-1.72,-6.01,6.16
-0.04,-0.05,1.03,-2.44,-6.53,6.08
-0.03,-0.08,1.03,-3.32,-7.02,6.02
-0.03,-0.08,1.03,-3.32,-7.02,6.02
-0.02,-0.1,1.03,-4.31,-7.5,6.05
-0.0,-0.13,1.04,-5.45,-7.89,6.2
0.01,-0.16,1.05,-6.75,-8.15,6.39
0.03,-0.2,1.06,-8.17,-8.3,6.6
0.04,-0.24,1.07,-9.76,-8.29,6.79
0.04,-0.24,1.07,-9.76,-8.29,6.79
0.05,-0.28,1.08,-11.53,-8.18,6.87
0.06,-0.32,1.08,-13.47,-8.02,6.79
0.07,-0.37,1.1,-15.51,-7.79,6.42
0.08,-0.42,1.1,-17.66,-7.53,5.71
0.09,-0.47,1.11,-19.89,-7.28,4.54
0.09,-0.47,1.11,-19.89,-7.28,4.54
0.1,-0.5,1.1,-22.13,-7.14,2.85
0.12,-0.54,1.09,-24.23,-7.02,0.65
0.13,-0.57,1.09,-26.03,-6.93,-2.06
0.14,-0.6,1.08,-27.47,-6.92,-5.2
0.15,-0.62,1.08,-28.56,-6.92,-8.72
0.15,-0.62,1.08,-28.56,-6.92,-8.72
0.15,-0.64,1.07,-29.21,-6.92,-12.61
0.16,-0.65,1.07,-29.41,-6.86,-16.76
0.16,-0.66,1.06,-29.15,-6.76,-21.13
0.16,-0.66,1.06,-28.67,-6.63,-25.65
0.15,-0.66,1.05,-28.01,-6.5,-30.23
0.15,-0.66,1.05,-28.01,-6.5,-30.23
0.15,-0.65,1.05,-27.23,-6.34,-34.92
0.14,-0.66,1.04,-26.41,-6.04,-39.75
0.13,-0.66,1.04,-25.43,-5.5,-44.72
0.12,-0.65,1.05,-23.99,-4.41,-49.88
0.08,-0.62,1.05,-21.87,-2.54,-55.31
0.08,-0.62,1.05,-21.87,-2.54,-55.31
0.04,-0.57,1.05,-19.19,-0.16,-61.05
0.0,-0.52,1.05,-16.19,2.27,-66.99
-0.03,-0.47,1.06,-13.15,4.37,-72.75
-0.05,-0.42,1.06,-10.29,5.84,-77.95
-0.07,-0.37,1.06,-7.82,6.56,-82.43
-0.07,-0.37,1.06,-7.82,6.56,-82.43
-0.09,-0.32,1.06,-5.87,6.32,-86.2
-0.1,-0.29,1.06,-4.67,5.09,-89.27
-0.11,-0.27,1.06,-4.48,2.99,-91.73
-0.11,-0.25,1.06,-5.35,0.29,-93.82
-0.1,-0.23,1.06,-7.04,-2.65,-95.63
-0.1,-0.23,1.06,-7.04,-2.65,-95.63
-0.1,-0.22,1.05,-9.19,-5.29,-97.33
-0.12,-0.21,1.03,-11.54,-7.4,-99.0
-0.13,-0.21,1.0,-13.74,-8.92,-100.87
-0.15,-0.2,0.97,-15.53,-9.85,-102.99
-0.17,-0.19,0.94,-16.68,-10.2,-105.27
-0.17,-0.19,0.94,-16.68,-10.2,-105.27
-0.18,-0.16,0.94,-16.98,-9.88,-107.5
-0.2,-0.12,0.95,-16.2,-8.47,-109.68
-0.22,-0.06,0.97,-14.1,-5.52,-111.92
-0.25,0.0,0.97,-10.74,-1.03,-114.28
-0.29,0.06,0.97,-6.52,4.5,-116.68
-0.29,0.06,0.97,-6.52,4.5,-116.68
-0.32,0.11,0.96,-1.89,10.51,-118.93
-0.33,0.14,0.95,2.8,16.4,-120.85
-0.34,0.16,0.95,7.09,21.58,-122.23
-0.34,0.17,0.95,10.24,25.6,-122.99
-0.34,0.17,0.93,11.89,28.06,-123.2
-0.34,0.17,0.93,11.89,28.06,-123.2
-0.35,0.17,0.88,12.26,28.85,-122.97
-0.36,0.15,0.83,12.12,28.27,-122.62
-0.36,0.13,0.81,12.21,26.9,-122.55
-0.36,0.12,0.82,13.0,25.17,-122.97
-0.34,0.14,0.82,14.83,23.56,-123.93
-0.34,0.14,0.82,14.83,23.56,-123.93
-0.32,0.17,0.84,17.78,22.59,-125.42
-0.3,0.24,0.88,21.82,22.67,-127.13
-0.31,0.31,0.92,26.79,24.15,-128.79
-0.33,0.37,0.95,32.31,26.97,-130.2
-0.33,0.37,0.95,37.74,30.48,-131.21
-0.35,0.43,0.96,37.74,30.48,-131.21
-0.37,0.49,0.97,42.34,33.94,-131.53
-0.36,0.52,0.98,45.33,36.76,-130.91
-0.35,0.55,0.99,46.0,38.42,-129.07
-0.35,0.57,0.99,43.96,38.38,-125.85
-0.35,0.57,0.99,43.96,38.38,-125.85
-0.35,0.57,0.98,39.26,36.51,-121.49
-0.35,0.54,0.98,32.37,33.02,-116.37
-0.33,0.51,0.97,24.09,28.42,-110.96
-0.31,0.46,0.98,15.49,23.37,-105.65
-0.28,0.43,0.99,7.34,18.39,-100.71
-0.28,0.43,0.99,7.34,18.39,-100.71
-0.25,0.41,0.98,0.14,13.96,-96.13
-0.24,0.4,0.98,-5.83,10.39,-91.88
-0.23,0.38,0.98,-10.56,7.79,-87.89
-0.23,0.38,0.97,-14.17,5.89,-84.06
-0.23,0.38,0.97,-16.89,4.5,-80.35
-0.23,0.38,0.97,-16.89,4.5,-80.35
-0.23,0.4,0.98,-18.89,3.34,-76.78
-0.22,0.42,1.0,-20.37,2.38,-73.36
-0.2,0.43,1.01,-21.59,1.76,-70.1
-0.19,0.43,1.02,-22.69,1.38,-66.78
-0.18,0.43,1.02,-23.77,1.05,-63.18
-0.18,0.43,1.02,-23.77,1.05,-63.18
-0.17,0.42,1.02,-24.92,0.42,-59.15
-0.17,0.41,1.01,-26.11,-0.58,-54.77
-0.19,0.42,1.02,-27.25,-1.94,-50.23
-0.11,0.32,1.01,-28.49,-3.84,-46.18
-0.17,0.32,0.96,-29.31,-5.41,-38.71
-0.17,0.32,0.96,-29.31,-5.41,-38.71
-0.21,0.4,1.01,-29.61,-7.05,-31.27
-0.19,0.38,1.04,-31.14,-10.3,-26.64
-0.14,0.36,1.02,-32.64,-13.61,-22.92
-0.12,0.32,0.99,-33.67,-16.27,-19.56
-0.08,0.29,0.97,-33.24,-18.21,-16.1
-0.08,0.29,0.97,-33.24,-18.21,-16.1
-0.08,0.28,0.97,-31.05,-19.06,-12.09
-0.09,0.29,0.99,-27.08,-19.12,-8.32
-0.08,0.31,0.99,-21.77,-18.46,-5.26
-0.07,0.33,1.0,-15.63,-17.32,-2.76
-0.09,0.36,1.0,-9.13,-15.78,-0.09
-0.09,0.36,1.0,-9.13,-15.78,-0.09
-0.11,0.41,1.03,-3.07,-14.2,2.81
-0.12,0.47,1.06,1.59,-13.05,5.77
-0.13,0.52,1.09,3.93,-12.82,8.88
-0.15,0.56,1.1,3.47,-13.76,12.28
-0.16,0.55,1.08,0.58,-15.77,15.68
-0.16,0.55,1.08,0.58,-15.77,15.68
-0.14,0.5,1.06,-3.47,-18.51,18.71
-0.12,0.45,1.05,-7.19,-21.34,21.28
-0.09,0.41,1.05,-10.05,-23.88,23.69
-0.08,0.39,1.04,-12.33,-25.85,27.42
-0.11,0.39,1.03,-14.0,-27.62,32.69
-0.11,0.39,1.03,-14.0,-27.62,32.69
-0.1,0.38,1.0,-14.46,-29.21,37.14
-0.07,0.35,0.99,-13.39,-29.97,39.5
-0.01,0.31,1.0,-10.68,-29.71,41.1
-0.02,0.33,1.03,-7.19,-27.99,44.06
-0.09,0.42,1.08,-4.74,-25.94,48.49
-0.09,0.42,1.08,-4.74,-25.94,48.49
-0.16,0.51,1.13,-5.33,-24.81,52.37
-0.18,0.52,1.1,-9.73,-25.21,53.96
-0.16,0.45,1.03,-15.52,-26.55,53.04
-0.12,0.36,1.01,-20.01,-27.03,49.65
-0.05,0.28,1.01,-23.16,-26.13,45.52
-0.05,0.28,1.01,-23.16,-26.13,45.52
-0.04,0.28,0.99,-26.06,-24.0,44.61
-0.1,0.28,0.92,-28.86,-21.67,47.15
-0.11,0.29,0.91,-29.02,-19.33,49.32
-0.07,0.26,0.92,-27.0,-16.58,49.55
-0.03,0.22,0.92,-23.83,-14.43,50.6
-0.03,0.22,0.92,-23.83,-14.43,50.6
-0.06,0.21,0.94,-19.83,-12.52,54.24
-0.12,0.22,0.97,-15.94,-11.21,59.44
-0.16,0.23,0.98,-13.09,-11.29,64.64
-0.17,0.22,0.96,-11.45,-12.77,69.65
-0.18,0.2,0.96,-10.57,-15.35,74.41
-0.18,0.2,0.96,-10.57,-15.35,74.41
-0.17,0.18,0.98,-10.17,-18.63,78.41
-0.14,0.16,0.99,-10.3,-22.09,81.48
-0.11,0.15,0.98,-11.09,-25.23,83.87
-0.09,0.14,0.96,-12.21,-27.78,85.9
-0.08,0.13,0.96,-13.18,-29.44,87.4
-0.08,0.13,0.96,-13.18,-29.44,87.4
-0.08,0.13,0.96,-13.7,-29.91,87.68
-0.07,0.12,0.97,-14.07,-29.13,86.42
-0.02,0.08,0.94,-14.75,-27.03,85.32
-0.0,0.07,0.89,-15.37,-23.81,87.19
-0.06,0.11,0.89,-15.48,-20.2,91.08
-0.06,0.11,0.89,-15.48,-20.2,91.08
-0.09,0.09,0.93,-15.44,-16.58,93.14
-0.07,0.02,0.93,-15.69,-12.94,92.61
-0.06,-0.05,0.9,-15.63,-9.11,91.89
-0.07,-0.11,0.87,-14.83,-5.22,92.28
-0.1,-0.13,0.86,-13.19,-1.77,93.53
-0.1,-0.13,0.86,-13.19,-1.77,93.53
-0.12,-0.15,0.86,-10.93,1.11,94.64
-0.13,-0.15,0.84,-8.14,3.22,94.97
-0.11,-0.15,0.82,-4.9,4.6,94.4
-0.1,-0.14,0.78,-1.28,5.39,93.21
-0.08,-0.11,0.76,2.76,5.62,91.79
-0.08,-0.11,0.76,2.76,5.62,91.79
-0.06,-0.07,0.76,7.2,5.47,90.4
-0.03,-0.03,0.78,11.59,5.13,89.31
-0.0,0.0,0.84,15.17,4.94,88.94
0.04,0.01,0.91,17.03,5.07,89.72
0.04,-0.01,0.95,16.61,5.64,91.8
0.04,-0.01,0.95,16.61,5.64,91.8
-0.02,-0.04,0.94,14.07,6.68,94.85
-0.1,-0.08,0.91,10.4,8.15,98.01
-0.18,-0.13,0.89,6.56,9.59,100.57
-0.23,-0.16,0.87,3.13,10.65,102.04
-0.24,-0.18,0.84,0.48,11.26,102.38
-0.24,-0.18,0.84,0.48,11.26,102.38
-0.23,-0.18,0.83,-1.27,11.36,101.81
-0.2,-0.16,0.84,-2.45,10.98,100.66
-0.15,-0.16,0.89,-3.63,10.37,99.38
-0.1,-0.19,0.94,-5.51,9.65,98.47
-0.08,-0.23,0.97,-8.58,8.95,98.29
-0.08,-0.23,0.97,-8.58,8.95,98.29
-0.08,-0.29,0.98,-12.78,8.44,98.77
-0.1,-0.35,0.96,-17.38,7.99,99.8
-0.13,-0.41,0.92,-21.63,7.43,101.29
-0.17,-0.45,0.89,-24.99,6.56,102.88
-0.2,-0.48,0.86,-27.12,5.22,104.05
-0.2,-0.48,0.86,-27.12,5.22,104.05
-0.2,-0.5,0.82,-27.8,3.5,104.5
-0.18,-0.52,0.81,-26.78,1.61,104.21
-0.14,-0.53,0.82,-24.07,-0.03,103.54
-0.09,-0.54,0.87,-20.18,-1.1,102.92
-0.07,-0.54,0.92,-15.94,-1.31,102.47
-0.07,-0.54,0.92,-15.94,-1.31,102.47
-0.07,-0.53,0.94,-11.99,-0.64,102.14
-0.11,-0.52,0.94,-8.6,0.74,101.7
-0.16,-0.52,0.95,-5.78,2.47,100.96
-0.2,-0.52,0.96,-3.5,4.2,99.87
-0.23,-0.52,0.96,-1.78,5.71,98.36
-0.23,-0.52,0.96,-1.78,5.71,98.36
-0.25,-0.51,0.96,-0.52,6.9,96.37
-0.24,-0.51,0.96,0.4,7.75,93.85
-0.23,-0.52,0.97,1.19,8.37,90.95
-0.2,-0.54,0.99,1.86,8.91,87.96
-0.19,-0.55,1.01,2.37,9.33,85.01
-0.19,-0.55,1.01,2.37,9.33,85.01
-0.19,-0.56,1.0,2.77,9.72,82.14
-0.21,-0.56,0.99,3.18,10.0,79.35
-0.22,-0.57,0.98,3.74,9.8,76.58
-0.23,-0.56,0.97,4.46,9.05,73.94
-0.22,-0.56,0.95,5.4,7.72,71.44
-0.22,-0.56,0.95,5.4,7.72,71.44
-0.21,-0.54,0.95,6.57,5.86,69.06
-0.2,-0.52,0.95,7.93,3.63,66.84
-0.18,-0.51,0.96,9.4,1.29,64.9
-0.17,-0.51,0.98,10.68,-0.97,63.24
-0.17,-0.51,0.99,11.71,-2.99,61.83
-0.17,-0.51,0.99,11.71,-2.99,61.83
-0.18,-0.51,0.99,12.52,-4.69,60.35
-0.18,-0.51,0.98,13.28,-5.95,58.56
-0.18,-0.5,0.99,14.19,-6.65,56.29
-0.18,-0.48,0.99,15.18,-6.77,53.51
-0.17,-0.46,1.0,16.13,-6.41,50.33
-0.17,-0.46,1.0,16.13,-6.41,50.33
-0.16,-0.43,0.99,16.81,-5.74,47.06
-0.15,-0.42,1.0,17.1,-5.0,43.96
-0.14,-0.41,1.0,16.97,-4.41,41.3
-0.14,-0.41,1.01,16.41,-4.08,39.14
-0.14,-0.43,1.01,15.52,-4.0,37.37
-0.14,-0.43,1.01,15.52,-4.0,37.37
-0.15,-0.45,1.01,14.54,-4.21,35.84
-0.17,-0.46,1.02,13.76,-4.56,34.36
-0.17,-0.46,1.02,13.31,-5.02,32.83
-0.17,-0.46,1.04,13.11,-5.62,31.22
-0.16,-0.45,1.04,13.01,-6.35,29.45
-0.16,-0.45,1.04,13.01,-6.35,29.45
-0.14,-0.44,1.05,12.91,-7.21,27.62
-0.12,-0.44,1.05,12.69,-8.11,25.81
-0.11,-0.43,1.07,12.3,-8.92,24.28
-0.07,-0.47,1.09,11.43,-9.71,22.5
-0.06,-0.47,1.09,10.25,-10.15,21.2
-0.06,-0.47,1.09,10.25,-10.15,21.2
-0.08,-0.48,1.11,8.61,-10.52,20.62
-0.1,-0.51,1.12,6.7,-10.89,19.34
-0.1,-0.55,1.1,5.05,-11.13,17.05
-0.11,-0.56,1.1,3.69,-11.28,14.17
-0.1,-0.57,1.11,2.51,-11.46,10.69
-0.1,-0.57,1.11,2.51,-11.46,10.69
-0.08,-0.56,1.1,1.49,-11.56,6.97
-0.07,-0.54,1.11,0.33,-11.75,3.41
-0.05,-0.53,1.1,-1.08,-12.07,-0.13
-0.04,-0.54,1.08,-2.47,-12.44,-3.46
-0.03,-0.56,1.06,-3.29,-12.91,-6.29
-0.03,-0.56,1.06,-3.29,-12.91,-6.29
-0.04,-0.56,1.07,-3.36,-13.49,-8.57
-0.05,-0.55,1.07,-2.88,-14.33,-10.55
-0.06,-0.54,1.08,-2.18,-15.53,-12.44
-0.07,-0.53,1.1,-1.66,-17.02,-14.38
-0.08,-0.51,1.1,-1.66,-18.73,-16.63
-0.08,-0.51,1.1,-1.66,-18.73,-16.63
-0.08,-0.5,1.09,-2.29,-20.53,-19.37
-0.07,-0.49,1.07,-3.47,-22.28,-22.71
-0.04,-0.49,1.06,-5.02,-23.71,-26.42
-0.01,-0.49,1.04,-6.78,-24.72,-29.73
-0.04,-0.41,1.04,-8.61,-25.29,-32.49
-0.04,-0.41,1.04,-8.61,-25.29,-32.49
0.06,-0.57,1.02,-10.45,-25.47,-36.6
0.05,-0.52,0.96,-11.19,-24.69,-38.1
0.0,-0.5,1.0,-11.2,-23.7,-37.79
-0.01,-0.52,0.99,-10.32,-22.71,-38.7
-0.04,-0.46,0.98,-8.66,-21.33,-40.86
-0.04,-0.46,0.98,-8.66,-21.33,-40.86
-0.0,-0.49,1.0,-7.1,-20.11,-45.13
0.04,-0.44,1.02,-5.47,-18.98,-48.92
0.03,-0.37,1.06,-5.01,-18.02,-50.66
0.01,-0.35,1.07,-6.03,-17.8,-51.92
0.02,-0.37,1.03,-7.85,-17.82,-53.93
0.02,-0.37,1.03,-7.85,-17.82,-53.93
0.01,-0.38,1.02,-9.89,-17.94,-56.12
-0.02,-0.38,1.03,-11.86,-18.28,-58.28
-0.05,-0.35,1.04,-13.78,-18.77,-60.64
-0.05,-0.34,1.05,-15.76,-19.58,-64.13
-0.0,-0.33,1.07,-18.04,-20.56,-68.62
-0.0,-0.33,1.07,-18.04,-20.56,-68.62
0.03,-0.31,1.08,-20.97,-21.66,-72.74
0.06,-0.29,1.09,-24.69,-22.79,-76.21
0.07,-0.28,1.08,-29.11,-23.73,-79.01
0.06,-0.29,1.07,-33.87,-24.5,-81.2
0.05,-0.31,1.04,-38.49,-25.14,-83.23
0.05,-0.31,1.04,-38.49,-25.14,-83.23
0.05,-0.34,1.01,-42.42,-25.55,-85.08
0.04,-0.36,0.98,-45.0,-25.63,-86.48
0.01,-0.36,0.96,-45.9,-25.46,-87.43
-0.01,-0.35,0.95,-45.21,-25.18,-87.84
-0.03,-0.32,0.94,-43.28,-24.96,-87.75
-0.03,-0.32,0.94,-43.28,-24.96,-87.75
-0.03,-0.29,0.94,-40.54,-24.78,-87.28
-0.02,-0.26,0.93,-37.21,-24.45,-86.64
0.0,-0.24,0.93,-33.43,-23.65,-85.99
0.02,-0.23,0.94,-29.36,-22.08,-85.26
0.03,-0.22,0.96,-25.22,-19.45,-84.41
0.03,-0.22,0.96,-25.22,-19.45,-84.41
0.01,-0.2,0.97,-21.16,-15.72,-83.61
-0.02,-0.18,0.96,-17.09,-11.09,-83.26
-0.06,-0.16,0.96,-13.07,-5.79,-83.56
-0.11,-0.15,0.96,-9.05,-0.17,-84.44
-0.15,-0.14,0.96,-4.86,5.14,-85.32
-0.15,-0.14,0.96,-4.86,5.14,-85.32
-0.19,-0.12,0.94,-0.54,9.74,-85.57
-0.23,-0.08,0.93,3.94,13.21,-84.71
-0.27,-0.04,0.92,8.47,15.45,-82.51
-0.32,0.02,0.92,12.92,16.48,-79.28
-0.34,0.08,0.92,17.02,16.52,-75.69
-0.34,0.08,0.92,17.02,16.52,-75.69
-0.33,0.14,0.93,20.43,15.88,-72.51
-0.31,0.19,0.94,23.15,14.9,-70.47
-0.26,0.23,0.95,25.38,14.13,-70.3
-0.21,0.27,0.97,27.43,14.05,-72.41
-0.15,0.29,0.99,29.43,15.21,-76.48
-0.15,0.29,0.99,29.43,15.21,-76.48
-0.12,0.31,0.99,31.43,17.9,-81.65
-0.1,0.34,0.99,33.42,21.97,-86.94
-0.11,0.37,0.98,35.29,26.97,-91.64
-0.13,0.39,0.96,37.05,32.3,-95.31
-0.15,0.41,0.94,38.54,37.3,-97.64
-0.15,0.41,0.94,38.54,37.3,-97.64
-0.16,0.44,0.93,39.7,41.41,-98.41
-0.15,0.47,0.93,40.43,44.21,-97.59
-0.13,0.5,0.95,40.37,45.69,-95.26
-0.11,0.53,0.96,39.21,45.89,-91.63
-0.09,0.59,0.99,36.92,45.09,-87.16
-0.09,0.59,0.99,36.92,45.09,-87.16
-0.11,0.6,1.05,32.92,43.76,-82.74
-0.06,0.47,0.97,26.88,41.58,-78.19
0.01,0.36,0.92,23.38,40.03,-72.1
-0.06,0.43,0.98,22.54,41.27,-64.92
-0.11,0.56,1.07,20.11,41.15,-60.18
-0.11,0.56,1.07,20.11,41.15,-60.18
-0.08,0.59,1.11,14.01,39.29,-58.19
-0.04,0.49,1.04,5.45,37.19,-55.96
-0.01,0.38,0.97,-1.95,36.37,-52.4
-0.01,0.3,0.99,-7.17,36.94,-49.3
-0.02,0.25,1.01,-10.95,37.5,-47.51
-0.02,0.25,1.01,-10.95,37.5,-47.51
-0.03,0.19,1.01,-13.73,37.72,-47.24
-0.02,0.1,0.98,-15.49,37.89,-47.31
-0.06,0.05,0.94,-15.92,38.1,-45.88
-0.13,0.06,0.93,-15.63,37.84,-43.14
-0.18,0.08,0.93,-15.66,35.97,-40.56
-0.18,0.08,0.93,-15.66,35.97,-40.56
-0.17,0.09,0.92,-16.21,32.2,-39.04
-0.12,0.08,0.9,-16.73,27.39,-38.17
-0.06,0.07,0.89,-16.09,22.57,-37.25
-0.02,0.07,0.89,-13.64,18.61,-36.24
0.01,0.09,0.91,-9.43,15.81,-35.26
0.01,0.09,0.91,-9.43,15.81,-35.26
0.03,0.12,0.93,-3.95,14.35,-34.28
0.03,0.16,0.95,2.04,14.19,-32.93
0.02,0.18,0.98,7.6,14.99,-30.73
-0.0,0.19,0.99,11.74,15.87,-27.84
-0.0,0.19,0.99,13.94,16.2,-24.8
-0.04,0.19,1.02,13.94,16.2,-24.8
-0.07,0.18,1.03,13.88,15.56,-21.94
-0.08,0.16,1.01,11.56,13.65,-19.47
-0.09,0.14,1.01,7.88,10.84,-17.36
-0.08,0.1,1.01,3.71,7.67,-15.67
-0.08,0.1,1.01,-0.3,4.5,-14.2
-0.06,0.08,1.02,-0.3,4.5,-14.2
-0.05,0.08,1.0,-3.79,1.7,-12.93
-0.04,0.08,0.99,-6.57,-0.61,-12.04
-0.02,0.07,0.98,-8.69,-2.53,-11.62
0.01,0.05,0.99,-10.21,-4.05,-11.4
0.01,0.05,0.99,-10.21,-4.05,-11.4
0.02,0.05,0.99,-11.22,-5.09,-10.99
0.0,0.05,0.99,-11.79,-5.72,-10.27
-0.0,0.01,0.97,-11.95,-6.33,-9.84
0.0,-0.06,0.91,-11.38,-6.94,-9.33
-0.03,-0.08,0.88,-9.38,-7.47,-7.63
-0.03,-0.08,0.88,-9.38,-7.47,-7.63
-0.06,-0.08,0.88,-6.46,-8.34,-5.76
-0.05,-0.08,0.88,-2.77,-9.7,-4.48
-0.02,-0.07,0.88,1.75,-10.72,-3.26
-0.02,-0.03,0.9,6.6,-11.23,-1.86
