ax,ay,az,gx,gy,gz
-0.05,0.18,1.02,0.27,0.05,1.46
-0.05,0.18,1.02,0.27,0.05,1.46
-0.05,0.18,1.02,-0.15,0.06,1.38
-0.05,0.18,1.02,-0.6,0.12,1.35
-0.05,0.18,1.03,-1.07,0.21,1.35
-0.05,0.18,1.02,-1.55,0.31,1.34
-0.05,0.17,1.03,-2.04,0.34,1.31
-0.05,0.17,1.03,-2.04,0.34,1.31
-0.04,0.17,1.03,-2.57,0.37,1.4
-0.04,0.16,1.03,-3.09,0.34,1.68
-0.05,0.15,1.02,-3.44,0.27,2.02
-0.05,0.14,1.02,-3.56,0.13,2.31
-0.05,0.14,1.02,-3.45,-0.07,2.6
-0.05,0.14,1.02,-3.45,-0.07,2.6
-0.05,0.14,1.03,-3.12,-0.28,2.84
-0.05,0.15,1.02,-2.57,-0.54,2.98
-0.05,0.15,1.03,-1.94,-0.85,2.98
-0.05,0.16,1.03,-1.32,-1.16,2.95
-0.05,0.17,1.03,-0.78,-1.43,2.94
-0.05,0.17,1.03,-0.78,-1.43,2.94
-0.04,0.17,1.04,-0.28,-1.52,2.87
-0.04,0.18,1.04,0.11,-1.38,2.76
-0.04,0.19,1.05,0.32,-1.03,2.6
-0.05,0.19,1.05,0.25,-0.61,2.41
-0.06,0.18,1.05,-0.17,-0.24,2.24
-0.06,0.18,1.05,-0.17,-0.24,2.24
-0.06,0.18,1.05,-0.89,-0.03,2.08
-0.06,0.17,1.04,-1.78,-0.04,1.9
-0.06,0.16,1.03,-2.61,-0.21,1.72
-0.05,0.15,1.02,-3.22,-0.47,1.56
-0.05,0.15,1.02,-3.55,-0.77,1.45
-0.05,0.15,1.02,-3.55,-0.77,1.45
-0.05,0.15,1.01,-3.62,-1.12,1.41
-0.04,0.15,1.01,-3.45,-1.45,1.44
-0.04,0.15,1.01,-3.11,-1.74,1.58
-0.04,0.15,1.01,-2.65,-2.0,1.77
-0.04,0.15,1.01,-2.12,-2.17,1.94
-0.04,0.15,1.01,-2.12,-2.17,1.94
-0.03,0.15,1.01,-1.53,-2.27,2.06
-0.03,0.16,1.02,-0.96,-2.26,2.13
-0.03,0.16,1.02,-0.44,-2.11,2.17
-0.03,0.16,1.02,-0.03,-1.85,2.17
-0.03,0.16,1.02,0.24,-1.49,2.11
-0.03,0.16,1.02,0.24,-1.49,2.11
-0.04,0.16,1.02,0.4,-1.04,2.02
-0.04,0.16,1.03,0.49,-0.58,1.9
-0.04,0.17,1.02,0.45,-0.22,1.74
-0.05,0.16,1.02,0.26,0.03,1.58
-0.05,0.16,1.02,-0.07,0.14,1.47
-0.05,0.16,1.02,-0.07,0.14,1.47
-0.05,0.16,1.02,-0.49,0.08,1.35
-0.05,0.16,1.02,-0.89,-0.02,1.26
-0.05,0.17,1.02,-1.27,-0.17,1.22
-0.05,0.17,1.03,-1.63,-0.31,1.2
-0.05,0.16,1.03,-2.06,-0.43,1.13
-0.05,0.16,1.03,-2.06,-0.43,1.13
-0.05,0.16,1.02,-2.49,-0.56,1.04
-0.04,0.15,1.02,-2.81,-0.67,1.02
-0.04,0.15,1.02,-2.95,-0.7,1.06
-0.04,0.14,1.02,-2.89,-0.66,1.13
-0.04,0.14,1.02,-2.66,-0.57,1.15
-0.04,0.14,1.02,-2.66,-0.57,1.15
-0.04,0.15,1.01,-2.26,-0.5,1.12
-0.04,0.15,1.01,-1.78,-0.4,1.02
-0.03,0.15,1.01,-1.29,-0.34,1.02
-0.04,0.15,1.02,-0.76,-0.32,1.12
-0.04,0.16,1.02,-0.21,-0.28,1.28
-0.04,0.16,1.02,-0.21,-0.28,1.28
-0.05,0.16,1.03,0.24,-0.25,1.39
-0.05,0.17,1.03,0.46,-0.32,1.41
-0.05,0.17,1.04,0.35,-0.53,1.35
-0.06,0.18,1.04,-0.05,-0.85,1.22
-0.05,0.17,1.03,-0.62,-1.18,0.98
-0.05,0.17,1.03,-0.62,-1.18,0.98
-0.04,0.17,1.03,-1.25,-1.47,0.72
-0.04,0.17,1.03,-1.97,-1.67,0.48
-0.04,0.17,1.03,-2.69,-1.76,0.28
-0.04,0.17,1.03,-3.37,-1.77,0.03
-0.04,0.17,1.02,-3.99,-1.66,-0.26
-0.04,0.17,1.02,-3.99,-1.66,-0.26
-0.04,0.16,1.02,-4.47,-1.55,-0.46
-0.03,0.15,1.01,-4.81,-1.5,-0.46
-0.03,0.15,1.01,-4.94,-1.51,-0.22
-0.04,0.15,1.01,-4.83,-1.58,0.15
-0.04,0.14,1.0,-4.4,-1.61,0.49
-0.04,0.14,1.0,-4.4,-1.61,0.49
-0.03,0.14,1.0,-3.69,-1.62,0.73
-0.03,0.14,1.01,-2.75,-1.62,0.94
-0.02,0.14,1.01,-1.63,-1.53,1.12
-0.02,0.15,1.01,-0.39,-1.26,1.26
-0.02,0.16,1.02,0.83,-0.84,1.32
-0.02,0.16,1.02,0.83,-0.84,1.32
-0.03,0.17,1.03,1.88,-0.37,1.29
-0.03,0.17,1.03,2.65,0.12,1.22
-0.03,0.18,1.03,3.11,0.6,1.11
-0.04,0.19,1.04,3.26,1.01,0.91
-0.04,0.19,1.04,3.08,1.29,0.67
-0.04,0.19,1.04,3.08,1.29,0.67
-0.04,0.19,1.04,2.56,1.46,0.44
-0.04,0.19,1.04,1.82,1.5,0.22
-0.04,0.19,1.05,0.96,1.5,0.03
-0.04,0.18,1.05,0.04,1.49,-0.1
-0.05,0.18,1.05,-0.89,1.45,-0.1
-0.05,0.18,1.05,-0.89,1.45,-0.1
-0.05,0.18,1.05,-1.82,1.3,0.02
-0.05,0.17,1.05,-2.71,1.06,0.19
-0.05,0.16,1.05,-3.53,0.63,0.48
-0.05,0.15,1.04,-4.24,0.02,0.78
-0.04,0.14,1.04,-4.73,-0.66,1.06
-0.04,0.14,1.04,-4.73,-0.66,1.06
-0.04,0.14,1.03,-4.91,-1.33,1.34
-0.03,0.13,1.02,-4.71,-1.91,1.56
-0.02,0.13,1.02,-4.16,-2.33,1.76
-0.01,0.14,1.02,-3.33,-2.56,1.9
-0.02,0.14,1.02,-2.34,-2.57,2.04
-0.02,0.14,1.02,-2.34,-2.57,2.04
-0.02,0.15,1.03,-1.34,-2.37,2.14
-0.02,0.16,1.03,-0.47,-1.99,2.16
-0.02,0.16,1.03,0.23,-1.48,2.11
-0.03,0.16,1.03,0.74,-0.88,2.01
-0.03,0.17,1.04,1.0,-0.32,1.87
-0.03,0.17,1.04,1.0,-0.32,1.87
-0.04,0.18,1.04,0.99,0.15,1.74
-0.04,0.18,1.04,0.68,0.45,1.59
-0.04,0.18,1.04,0.06,0.56,1.38
-0.04,0.18,1.04,-0.81,0.41,1.2
-0.04,0.17,1.03,-1.82,0.08,1.12
-0.04,0.17,1.03,-1.82,0.08,1.12
-0.04,0.16,1.02,-2.85,-0.42,1.14
-0.03,0.15,1.02,-3.77,-1.01,1.27
-0.03,0.15,1.02,-4.56,-1.57,1.47
-0.02,0.14,1.02,-5.19,-2.06,1.7
-0.02,0.13,1.01,-5.62,-2.41,1.9
-0.02,0.13,1.01,-5.62,-2.41,1.9
-0.01,0.12,1.01,-5.81,-2.62,2.06
-0.0,0.12,1.02,-5.72,-2.62,2.22
-0.0,0.11,1.02,-5.4,-2.36,2.4
-0.01,0.11,1.01,-4.94,-1.93,2.54
-0.01,0.11,1.02,-4.36,-1.37,2.59
-0.01,0.11,1.02,-4.36,-1.37,2.59
-0.01,0.11,1.02,-3.75,-0.79,2.53
-0.01,0.1,1.03,-3.13,-0.24,2.45
-0.02,0.11,1.04,-2.55,0.23,2.4
-0.02,0.11,1.05,-2.08,0.6,2.38
-0.03,0.1,1.05,-1.81,0.86,2.4
-0.03,0.1,1.05,-1.81,0.86,2.4
-0.03,0.09,1.07,-1.8,1.0,2.34
-0.04,0.08,1.08,-2.18,0.95,2.2
-0.04,0.06,1.09,-2.92,0.75,1.9
-0.04,0.04,1.09,-3.89,0.41,1.44
-0.03,0.01,1.1,-4.97,-0.06,0.88
-0.03,0.01,1.1,-4.97,-0.06,0.88
-0.03,-0.02,1.1,-6.13,-0.67,0.21
-0.03,-0.05,1.1,-7.33,-1.42,-0.56
-0.01,-0.1,1.1,-8.48,-2.33,-1.41
-0.01,-0.14,1.1,-9.57,-3.33,-2.37
-0.0,-0.18,1.1,-10.52,-4.41,-3.55
-0.0,-0.18,1.1,-10.52,-4.41,-3.55
0.0,-0.22,1.1,-11.18,-5.54,-5.07
-0.0,-0.26,1.1,-11.43,-6.87,-6.96
-0.02,-0.29,1.1,-11.37,-8.48,-9.28
-0.03,-0.31,1.1,-11.12,-10.57,-12.21
-0.04,-0.33,1.1,-10.92,-13.37,-15.88
-0.04,-0.33,1.1,-10.92,-13.37,-15.88
-0.04,-0.34,1.1,-10.98,-17.04,-20.23
-0.03,-0.33,1.09,-11.54,-21.23,-25.18
-0.01,-0.32,1.09,-12.54,-25.53,-30.58
0.01,-0.32,1.09,-13.89,-29.54,-36.15
0.03,-0.32,1.09,-15.85,-33.36,-41.74
0.03,-0.32,1.09,-15.85,-33.36,-41.74
0.06,-0.31,1.09,-18.49,-37.15,-47.12
0.09,-0.32,1.07,-21.78,-40.41,-52.13
0.12,-0.33,1.04,-25.32,-42.82,-56.71
0.13,-0.35,1.02,-28.63,-44.36,-60.85
0.14,-0.36,0.99,-31.37,-45.14,-64.61
0.14,-0.36,0.99,-31.37,-45.14,-64.61
0.14,-0.36,0.96,-33.16,-45.17,-68.1
0.14,-0.36,0.94,-33.75,-44.52,-71.39
0.13,-0.35,0.91,-33.05,-43.14,-74.55
0.13,-0.34,0.9,-31.12,-41.18,-77.57
0.13,-0.31,0.89,-28.07,-38.86,-80.24
0.13,-0.31,0.89,-28.07,-38.86,-80.24
0.13,-0.29,0.91,-24.22,-36.3,-82.52
0.13,-0.26,0.92,-20.07,-33.68,-84.36
0.12,-0.23,0.92,-16.09,-31.07,-85.8
0.11,-0.19,0.94,-12.48,-28.48,-86.98
0.08,-0.14,0.96,-9.03,-25.64,-88.03
0.08,-0.14,0.96,-9.03,-25.64,-88.03
0.04,-0.07,0.99,-5.46,-22.09,-89.31
-0.0,0.01,1.01,-1.7,-17.84,-91.15
-0.02,0.07,1.03,1.84,-13.28,-93.56
-0.02,0.1,1.04,4.51,-8.88,-96.03
-0.01,0.13,1.03,5.77,-5.02,-97.85
-0.01,0.13,1.03,5.77,-5.02,-97.85
-0.01,0.14,1.03,5.42,-2.11,-98.59
-0.02,0.13,1.01,3.54,-0.43,-98.2
-0.04,0.1,0.99,0.37,-0.04,-96.84
-0.05,0.07,0.95,-3.64,-0.86,-94.75
-0.06,0.05,0.93,-7.7,-2.57,-92.29
-0.06,0.05,0.93,-7.7,-2.57,-92.29
-0.06,0.05,0.91,-10.98,-4.53,-89.88
-0.04,0.05,0.9,-12.82,-6.18,-87.79
-0.04,0.06,0.89,-12.89,-7.0,-86.14
-0.04,0.09,0.89,-11.05,-6.62,-85.08
-0.04,0.13,0.89,-7.45,-5.01,-84.39
-0.04,0.13,0.89,-7.45,-5.01,-84.39
-0.06,0.18,0.91,-2.64,-2.34,-83.85
-0.08,0.24,0.95,2.66,1.22,-83.34
-0.1,0.31,1.0,7.96,5.71,-82.95
-0.12,0.37,1.02,12.78,11.08,-82.85
-0.14,0.42,1.04,16.78,17.09,-83.0
-0.14,0.42,1.04,16.78,17.09,-83.0
-0.17,0.45,1.05,19.66,23.23,-83.14
-0.2,0.48,1.05,21.31,29.11,-83.1
-0.22,0.5,1.04,21.81,34.36,-82.77
-0.24,0.51,1.03,21.32,38.48,-82.0
-0.26,0.51,1.02,20.0,41.24,-80.83
-0.26,0.51,1.02,20.0,41.24,-80.83
-0.27,0.51,1.0,18.05,42.67,-79.31
-0.27,0.5,0.98,15.62,42.67,-77.44
-0.26,0.48,0.96,12.94,41.36,-75.28
-0.24,0.46,0.95,10.3,38.89,-72.92
-0.22,0.43,0.95,7.98,35.56,-70.45
-0.22,0.43,0.95,7.98,35.56,-70.45
-0.2,0.42,0.95,6.17,31.8,-67.98
-0.18,0.4,0.96,5.08,28.08,-65.56
-0.16,0.4,0.96,4.8,24.8,-63.36
-0.15,0.43,0.99,5.49,22.43,-61.57
-0.14,0.48,1.02,7.32,21.45,-60.19
-0.14,0.48,1.02,7.32,21.45,-60.19
-0.13,0.55,1.07,10.18,22.05,-59.16
-0.15,0.63,1.13,13.35,23.93,-58.32
-0.18,0.7,1.19,15.88,26.63,-57.53
-0.21,0.75,1.22,16.88,29.5,-56.63
-0.24,0.77,1.22,15.69,31.88,-55.36
-0.24,0.77,1.22,15.69,31.88,-55.36
-0.26,0.76,1.22,11.87,32.91,-53.5
-0.28,0.73,1.21,5.27,31.99,-50.93
-0.29,0.67,1.18,-3.89,28.76,-47.85
-0.28,0.6,1.14,-14.75,23.26,-44.52
-0.24,0.52,1.1,-25.83,16.08,-41.11
-0.24,0.52,1.1,-25.83,16.08,-41.11
-0.2,0.44,1.08,-35.89,8.04,-37.53
-0.15,0.37,1.05,-43.98,-0.02,-33.83
-0.1,0.31,1.01,-49.41,-7.41,-30.1
-0.06,0.26,0.98,-51.77,-13.68,-26.35
-0.03,0.22,0.97,-50.96,-18.55,-22.6
-0.03,0.22,0.97,-50.96,-18.55,-22.6
-0.0,0.21,0.96,-47.1,-21.87,-18.93
0.01,0.22,0.96,-40.61,-23.56,-15.59
0.02,0.24,0.97,-32.11,-23.77,-12.8
0.02,0.28,0.98,-22.32,-22.74,-10.58
0.02,0.32,1.02,-12.15,-20.64,-8.67
0.02,0.32,1.02,-12.15,-20.64,-8.67
0.02,0.37,1.04,-2.37,-17.65,-6.99
0.0,0.41,1.06,6.3,-14.05,-5.49
-0.01,0.44,1.08,13.37,-10.23,-4.03
-0.02,0.46,1.09,18.49,-6.58,-2.57
-0.03,0.47,1.09,21.48,-3.43,-1.07
-0.03,0.47,1.09,21.48,-3.43,-1.07
-0.04,0.48,1.08,22.41,-1.03,0.52
-0.06,0.49,1.07,21.51,0.4,2.24
-0.06,0.49,1.05,19.2,0.72,4.12
-0.07,0.48,1.04,15.84,0.04,6.27
-0.06,0.48,1.04,11.74,-1.47,8.67
-0.06,0.48,1.04,11.74,-1.47,8.67
-0.06,0.48,1.04,7.25,-3.42,11.08
-0.04,0.47,1.05,2.72,-5.42,13.32
-0.02,0.46,1.06,-1.67,-7.16,15.43
-0.01,0.44,1.06,-5.79,-8.49,17.59
-0.02,0.43,1.06,-9.52,-9.33,19.86
-0.02,0.43,1.06,-9.52,-9.33,19.86
-0.02,0.42,1.06,-12.64,-9.61,22.14
-0.02,0.42,1.07,-14.98,-9.28,24.29
-0.03,0.43,1.08,-16.53,-8.27,26.24
-0.04,0.44,1.1,-17.44,-6.66,28.0
-0.04,0.44,1.1,-17.96,-4.59,29.59
-0.05,0.45,1.11,-17.96,-4.59,29.59
-0.06,0.46,1.12,-18.37,-2.33,31.1
-0.07,0.45,1.13,-19.0,-0.11,32.71
-0.09,0.44,1.13,-19.94,1.8,34.51
-0.1,0.43,1.13,-21.2,3.27,36.39
-0.1,0.43,1.13,-21.2,3.27,36.39
-0.12,0.42,1.12,-22.62,4.23,38.27
-0.13,0.4,1.12,-24.06,4.6,39.99
-0.14,0.38,1.12,-25.35,4.36,41.43
-0.15,0.37,1.1,-26.35,3.69,42.53
-0.15,0.36,1.08,-26.84,2.73,43.25
-0.15,0.36,1.08,-26.84,2.73,43.25
-0.14,0.35,1.06,-26.76,1.59,43.74
-0.12,0.35,1.04,-26.21,0.4,44.09
-0.11,0.35,1.02,-25.25,-0.79,44.41
-0.09,0.36,1.0,-23.96,-1.79,44.73
-0.07,0.36,0.99,-22.43,-2.46,45.18
-0.07,0.36,0.99,-22.43,-2.46,45.18
-0.05,0.35,0.99,-20.75,-2.84,45.99
-0.04,0.34,1.01,-19.08,-2.85,47.5
-0.04,0.34,1.03,-17.59,-2.4,49.85
-0.06,0.33,1.03,-16.4,-1.51,52.83
-0.09,0.31,1.02,-15.58,-0.43,56.03
-0.09,0.31,1.02,-15.58,-0.43,56.03
-0.11,0.28,1.01,-15.13,0.58,59.15
-0.13,0.26,1.0,-14.89,1.4,61.88
-0.15,0.25,0.98,-14.57,2.02,64.0
-0.15,0.23,0.96,-13.96,2.46,65.33
-0.14,0.21,0.93,-12.96,2.7,65.84
-0.14,0.21,0.93,-12.96,2.7,65.84
-0.11,0.21,0.92,-11.35,2.59,65.86
-0.09,0.21,0.9,-9.0,2.3,65.94
-0.08,0.23,0.89,-6.04,1.89,66.48
-0.1,0.26,0.9,-2.85,1.25,67.55
-0.12,0.29,0.9,0.21,0.23,68.88
-0.12,0.29,0.9,0.21,0.23,68.88
-0.13,0.32,0.91,2.73,-1.16,70.12
-0.13,0.33,0.9,4.26,-3.01,71.15
-0.12,0.34,0.89,4.59,-5.43,72.14
-0.11,0.33,0.9,3.71,-8.51,73.4
-0.09,0.3,0.91,1.65,-12.09,75.31
-0.09,0.3,0.91,1.65,-12.09,75.31
-0.09,0.26,0.94,-1.6,-15.89,78.01
-0.09,0.21,0.98,-5.86,-19.68,81.29
-0.12,0.15,1.02,-10.84,-23.06,84.64
-0.15,0.08,1.04,-16.21,-25.77,87.28
-0.18,0.01,1.05,-21.42,-27.89,88.44
-0.18,0.01,1.05,-21.42,-27.89,88.44
-0.18,-0.07,1.06,-25.99,-29.48,87.64
-0.14,-0.14,1.04,-29.46,-30.44,84.91
-0.07,-0.2,1.02,-31.3,-30.46,80.8
0.0,-0.24,0.97,-31.11,-29.25,76.04
0.05,-0.26,0.92,-28.48,-26.86,71.25
0.05,-0.26,0.92,-28.48,-26.86,71.25
0.08,-0.25,0.9,-23.56,-23.42,66.81
0.09,-0.21,0.9,-16.9,-19.36,62.75
0.11,-0.15,0.91,-9.45,-15.04,59.33
0.11,-0.11,0.9,-2.25,-10.94,57.5
0.08,-0.09,0.91,4.61,-7.25,57.25
0.08,-0.09,0.91,4.61,-7.25,57.25
0.06,-0.08,0.93,10.81,-4.0,57.62
0.05,-0.07,0.96,16.1,-1.42,58.05
0.04,-0.07,0.98,20.08,0.58,58.25
0.04,-0.08,0.98,22.89,2.12,58.44
0.02,-0.09,0.97,25.01,3.51,59.15
0.02,-0.09,0.97,25.01,3.51,59.15
-0.01,-0.09,0.96,26.89,4.76,60.08
-0.04,-0.08,0.96,28.93,6.02,60.45
-0.06,-0.04,0.96,31.07,7.32,59.95
-0.06,0.0,0.97,32.85,8.41,58.21
-0.03,0.03,0.97,33.84,9.29,55.02
-0.03,0.03,0.97,33.84,9.29,55.02
0.01,0.03,0.95,34.2,10.32,51.36
0.06,0.01,0.95,34.49,11.6,48.15
0.11,0.01,1.02,34.29,13.63,46.43
0.09,0.07,1.09,31.85,15.65,47.66
0.0,0.02,1.01,26.21,16.98,50.72
0.0,0.02,1.01,26.21,16.98,50.72
-0.02,-0.11,0.97,22.1,17.57,52.03
0.01,-0.2,1.01,20.16,19.77,50.49
-0.02,-0.18,1.04,17.56,21.61,50.55
-0.09,-0.15,1.0,14.04,21.99,52.85
-0.1,-0.23,0.94,11.88,22.08,53.74
-0.1,-0.23,0.94,11.88,22.08,53.74
-0.06,-0.35,0.88,13.34,22.75,52.54
-0.05,-0.39,0.89,18.29,23.66,51.17
-0.08,-0.32,0.92,25.37,24.35,50.68
-0.11,-0.21,0.96,33.03,24.57,50.41
-0.12,-0.13,1.0,39.95,24.01,49.62
-0.12,-0.13,1.0,39.95,24.01,49.62
-0.1,-0.08,1.03,44.97,22.56,48.65
-0.1,-0.06,1.06,47.33,20.23,48.67
-0.13,-0.04,1.08,46.85,17.11,49.74
-0.15,-0.06,1.09,43.81,13.23,50.46
-0.12,-0.11,1.08,39.15,9.06,50.2
-0.12,-0.11,1.08,39.15,9.06,50.2
-0.1,-0.15,1.08,34.07,5.26,49.74
-0.1,-0.17,1.08,29.32,2.25,49.34
-0.11,-0.17,1.08,25.18,0.11,48.34
-0.11,-0.17,1.07,21.65,-1.27,46.3
-0.11,-0.15,1.07,18.45,-2.05,43.55
-0.11,-0.15,1.07,18.45,-2.05,43.55
-0.1,-0.14,1.06,15.31,-2.55,40.63
-0.09,-0.12,1.05,12.23,-2.81,37.72
-0.08,-0.11,1.06,9.09,-2.82,34.73
-0.08,-0.1,1.07,5.64,-2.78,31.83
-0.09,-0.1,1.08,1.69,-2.78,29.18
-0.09,-0.1,1.08,1.69,-2.78,29.18
-0.1,-0.1,1.07,-2.62,-2.79,26.74
-0.1,-0.11,1.08,-6.91,-2.82,24.43
-0.09,-0.13,1.07,-10.73,-2.73,22.35
-0.08,-0.14,1.07,-13.84,-2.54,20.59
-0.08,-0.14,1.07,-16.04,-2.19,19.12
-0.08,-0.14,1.07,-16.04,-2.19,19.12
-0.08,-0.15,1.07,-17.21,-1.62,17.79
-0.09,-0.15,1.07,-17.47,-0.8,16.54
-0.11,-0.15,1.08,-16.95,0.07,15.32
-0.11,-0.15,1.08,-15.81,0.89,13.86
-0.1,-0.16,1.09,-14.21,1.56,12.13
-0.1,-0.16,1.09,-14.21,1.56,12.13
-0.1,-0.15,1.11,-12.35,2.04,10.46
-0.1,-0.15,1.12,-10.48,2.25,8.9
-0.1,-0.15,1.12,-8.56,2.17,7.26
-0.1,-0.14,1.13,-6.59,1.75,5.53
-0.11,-0.14,1.14,-4.72,0.91,3.64
-0.11,-0.14,1.14,-4.72,0.91,3.64
-0.1,-0.13,1.14,-3.01,-0.34,1.54
-0.08,-0.11,1.15,-1.65,-1.84,-0.61
-0.07,-0.08,1.16,-1.07,-3.59,-2.58
-0.06,-0.02,1.21,-1.89,-5.63,-4.37
-0.05,-0.01,1.19,-5.5,-8.22,-5.9
-0.05,-0.01,1.19,-5.5,-8.22,-5.9
-0.02,-0.05,1.15,-10.04,-11.36,-7.48
-0.0,-0.12,1.11,-14.42,-14.02,-9.47
0.04,-0.19,1.08,-17.66,-16.69,-11.73
0.05,-0.21,1.06,-19.23,-18.73,-13.18
0.02,-0.19,1.08,-19.43,-20.47,-13.97
0.02,-0.19,1.08,-19.43,-20.47,-13.97
0.01,-0.17,1.08,-19.14,-22.28,-14.94
0.02,-0.18,1.06,-18.78,-24.19,-16.36
0.04,-0.17,1.06,-18.11,-26.02,-18.17
0.06,-0.17,1.05,-17.77,-27.8,-20.66
0.09,-0.15,1.09,-17.47,-29.11,-23.15
0.09,-0.15,1.09,-17.47,-29.11,-23.15
0.08,-0.15,1.06,-18.41,-29.82,-24.36
0.11,-0.21,0.99,-18.23,-30.48,-25.23
0.1,-0.24,1.01,-15.44,-29.55,-26.24
0.09,-0.22,1.07,-11.45,-28.27,-27.9
0.05,-0.14,1.08,-7.38,-26.77,-29.35
0.05,-0.14,1.08,-7.38,-26.77,-29.35
0.01,-0.09,1.09,-3.55,-25.12,-30.7
-0.02,-0.03,1.14,-0.36,-23.65,-33.01
0.0,0.0,1.16,0.55,-22.84,-36.34
0.02,0.02,1.12,-0.82,-22.77,-38.82
0.03,0.01,1.09,-3.26,-23.02,-40.16
0.03,0.01,1.09,-3.26,-23.02,-40.16
0.06,-0.03,1.08,-5.75,-23.48,-41.54
0.1,-0.06,1.05,-7.72,-23.77,-42.83
0.11,-0.06,1.03,-9.04,-23.85,-43.26
0.1,-0.07,1.02,-9.96,-23.99,-43.23
0.11,-0.08,1.02,-10.75,-24.25,-43.3
0.11,-0.08,1.02,-10.75,-24.25,-43.3
0.12,-0.1,1.03,-11.39,-24.36,-43.26
0.11,-0.09,1.03,-11.61,-23.86,-42.97
0.09,-0.08,1.04,-11.18,-22.56,-42.86
0.1,-0.08,1.04,-10.06,-20.42,-43.45
0.12,-0.09,1.03,-8.28,-17.27,-44.58
0.12,-0.09,1.03,-8.28,-17.27,-44.58
0.13,-0.07,1.03,-6.11,-13.25,-45.65
0.13,-0.05,1.03,-3.92,-8.56,-46.48
0.13,-0.02,1.01,-2.02,-3.38,-47.06
0.11,-0.0,0.98,-0.3,2.0,-47.19
0.08,0.01,0.97,1.46,7.19,-46.87
0.08,0.01,0.97,1.46,7.19,-46.87
0.06,0.01,0.96,3.13,11.79,-46.44
0.04,-0.01,0.95,4.75,15.56,-46.03
0.03,-0.01,0.95,6.31,18.46,-45.56
0.0,-0.02,0.93,7.49,20.27,-44.95
-0.04,-0.02,0.91,8.25,20.83,-44.4
-0.04,-0.02,0.91,8.25,20.83,-44.4
-0.08,-0.03,0.89,8.54,20.04,-44.37
-0.1,-0.03,0.88,8.4,17.85,-45.09
-0.1,-0.0,0.89,8.21,14.67,-46.57
-0.1,0.04,0.92,8.55,11.44,-48.58
-0.09,0.1,0.96,10.15,9.04,-50.97
-0.09,0.1,0.96,10.15,9.04,-50.97
-0.07,0.16,1.0,12.75,7.93,-53.6
-0.07,0.22,1.03,15.43,7.82,-56.01
-0.07,0.27,1.06,17.14,8.28,-57.73
-0.08,0.3,1.07,17.1,8.82,-58.56
-0.08,0.3,1.05,15.23,9.17,-58.51
-0.08,0.3,1.05,15.23,9.17,-58.51
-0.08,0.29,1.03,11.37,8.93,-57.81
-0.08,0.26,1.0,5.9,7.82,-56.57
-0.07,0.22,0.96,-0.47,6.13,-54.85
-0.06,0.16,0.92,-7.04,3.95,-53.04
-0.03,0.11,0.9,-13.13,1.58,-51.19
-0.03,0.11,0.9,-13.13,1.58,-51.19
-0.01,0.07,0.89,-18.33,-0.59,-49.05
0.0,0.05,0.87,-22.34,-2.26,-46.64
-0.0,0.03,0.86,-24.65,-3.05,-44.19
-0.02,0.03,0.86,-24.58,-2.62,-42.03
-0.05,0.07,0.89,-21.42,-0.51,-40.72
-0.05,0.07,0.89,-21.42,-0.51,-40.72
-0.09,0.16,0.93,-14.92,3.87,-40.65
-0.13,0.25,0.97,-5.71,10.3,-42.2
-0.16,0.32,1.01,4.98,17.72,-45.29
-0.17,0.37,1.03,15.9,25.17,-49.24
-0.17,0.41,1.06,25.71,31.98,-52.95
-0.17,0.41,1.06,25.71,31.98,-52.95
-0.17,0.44,1.1,33.29,37.51,-55.43
-0.17,0.46,1.1,37.54,41.02,-56.5
-0.19,0.47,1.07,38.24,41.84,-55.65
-0.22,0.47,1.01,35.97,40.03,-53.5
-0.22,0.44,0.98,31.67,35.9,-51.11
-0.22,0.44,0.98,31.67,35.9,-51.11
-0.21,0.41,0.97,26.76,30.16,-48.71
-0.17,0.39,0.99,22.22,23.8,-46.62
-0.13,0.39,1.0,18.45,17.81,-44.75
-0.09,0.4,1.0,15.65,12.85,-43.55
-0.07,0.4,0.99,14.01,9.38,-42.82
-0.07,0.4,0.99,14.01,9.38,-42.82
-0.06,0.42,0.98,13.8,7.72,-42.44
