ax,ay,az,gx,gy,gz
-0.04,-0.0,0.98,1.86,-1.73,2.96
-0.04,-0.0,0.98,1.86,-1.73,2.96
-0.04,-0.0,0.98,2.42,-1.7,3.0
-0.04,-0.0,0.98,3.1,-1.61,3.0
-0.04,0.01,0.99,3.81,-1.51,2.96
-0.04,0.02,0.99,4.48,-1.39,2.87
-0.05,0.03,1.0,5.02,-1.13,2.74
-0.05,0.03,1.0,5.02,-1.13,2.74
-0.05,0.03,1.0,5.37,-0.81,2.55
-0.05,0.03,1.01,5.39,-0.43,2.32
-0.05,0.03,1.02,5.04,-0.06,2.0
-0.05,0.03,1.02,4.35,0.37,1.61
-0.05,0.02,1.02,3.5,0.82,1.18
-0.05,0.02,1.02,3.5,0.82,1.18
-0.05,0.02,1.02,2.62,1.3,0.72
-0.06,0.02,1.02,1.74,1.7,0.3
-0.06,0.01,1.01,0.88,1.9,-0.07
-0.05,0.01,1.0,0.02,1.78,-0.39
-0.05,0.0,0.99,-0.72,1.42,-0.6
-0.05,0.0,0.99,-0.72,1.42,-0.6
-0.04,-0.01,0.98,-1.24,0.89,-0.64
-0.04,-0.01,0.98,-1.51,0.26,-0.53
-0.03,-0.01,0.97,-1.47,-0.37,-0.32
-0.01,-0.01,0.98,-1.11,-0.92,-0.09
-0.0,-0.01,0.98,-0.48,-1.29,0.18
-0.0,-0.01,0.98,-0.48,-1.29,0.18
0.0,-0.01,0.98,0.34,-1.35,0.51
-0.0,-0.01,0.99,1.3,-1.06,0.84
-0.01,0.0,0.99,2.33,-0.45,1.13
-0.02,0.01,0.99,3.38,0.41,1.36
-0.03,0.02,1.0,4.38,1.39,1.53
-0.03,0.02,1.0,4.38,1.39,1.53
-0.04,0.02,1.01,5.17,2.36,1.67
-0.05,0.03,1.02,5.67,3.21,1.8
-0.06,0.03,1.02,5.86,3.92,1.9
-0.06,0.03,1.02,5.79,4.37,1.97
-0.07,0.02,1.02,5.54,4.49,2.01
-0.07,0.02,1.02,5.54,4.49,2.01
-0.06,0.02,1.02,5.11,4.27,2.07
-0.06,0.02,1.02,4.61,3.73,2.17
-0.06,0.03,1.02,4.08,2.94,2.23
-0.05,0.03,1.02,3.57,2.02,2.26
-0.05,0.03,1.02,3.0,1.03,2.22
-0.05,0.03,1.02,3.0,1.03,2.22
-0.04,0.03,1.02,2.33,0.05,2.22
-0.03,0.03,1.01,1.57,-0.83,2.23
-0.02,0.02,1.01,0.75,-1.55,2.27
-0.02,0.01,1.01,-0.06,-2.11,2.33
-0.02,0.0,1.0,-0.76,-2.45,2.42
-0.02,0.0,1.0,-0.76,-2.45,2.42
-0.02,-0.01,0.99,-1.27,-2.59,2.54
-0.03,-0.01,0.99,-1.51,-2.59,2.64
-0.03,-0.02,0.99,-1.45,-2.47,2.65
-0.03,-0.01,0.98,-1.05,-2.32,2.58
-0.03,-0.01,0.99,-0.37,-2.17,2.43
-0.03,-0.01,0.99,-0.37,-2.17,2.43
-0.03,-0.01,1.0,0.53,-2.03,2.26
-0.02,-0.0,1.01,1.46,-1.88,2.1
-0.02,0.0,1.02,2.29,-1.69,1.99
-0.03,0.0,1.02,2.94,-1.48,1.92
-0.03,-0.0,1.03,3.35,-1.26,1.9
-0.03,-0.0,1.03,3.35,-1.26,1.9
-0.03,-0.01,1.03,3.57,-1.1,1.9
-0.04,-0.01,1.03,3.66,-1.03,1.87
-0.04,-0.02,1.03,3.68,-1.07,1.81
-0.03,-0.03,1.03,3.66,-1.26,1.78
-0.03,-0.03,1.03,3.61,-1.56,1.78
-0.03,-0.03,1.03,3.61,-1.56,1.78
-0.03,-0.04,1.04,3.55,-1.92,1.77
-0.03,-0.04,1.04,3.44,-2.34,1.75
-0.02,-0.06,1.04,3.29,-2.8,1.72
-0.02,-0.07,1.04,3.07,-3.3,1.67
-0.02,-0.07,1.04,2.78,-3.88,1.55
-0.03,-0.08,1.04,2.78,-3.88,1.55
-0.03,-0.09,1.04,2.49,-4.54,1.27
-0.02,-0.1,1.03,2.2,-5.24,0.76
-0.0,-0.12,1.03,1.97,-5.94,0.04
0.02,-0.13,1.03,1.84,-6.6,-0.75
0.02,-0.13,1.03,1.77,-7.16,-1.55
0.03,-0.15,1.03,1.77,-7.16,-1.55
0.04,-0.17,1.03,1.78,-7.67,-2.28
0.06,-0.19,1.03,1.81,-8.29,-2.89
0.07,-0.21,1.03,1.66,-8.85,-3.41
0.09,-0.22,1.04,1.45,-9.47,-3.91
0.09,-0.22,1.04,1.45,-9.47,-3.91
0.09,-0.24,1.01,1.22,-9.86,-4.39
0.09,-0.26,0.99,1.01,-10.17,-4.94
0.09,-0.29,0.99,0.95,-10.59,-5.76
0.1,-0.3,0.99,1.18,-11.1,-6.95
0.12,-0.31,0.98,1.68,-11.65,-8.53
0.12,-0.31,0.98,1.68,-11.65,-8.53
0.15,-0.32,0.99,2.41,-12.2,-10.4
0.18,-0.33,0.99,3.25,-12.65,-12.31
0.2,-0.34,1.01,4.05,-12.96,-14.16
0.2,-0.35,1.01,4.68,-13.07,-16.06
0.2,-0.36,1.02,4.98,-12.99,-18.03
0.2,-0.36,1.02,4.98,-12.99,-18.03
0.2,-0.37,1.02,4.94,-12.74,-20.11
0.19,-0.38,1.02,4.61,-12.3,-22.36
0.19,-0.4,1.03,4.08,-11.67,-24.69
0.18,-0.42,1.06,3.39,-10.76,-27.04
0.17,-0.45,1.09,2.48,-9.41,-29.55
0.17,-0.45,1.09,2.48,-9.41,-29.55
0.16,-0.48,1.14,1.3,-7.66,-32.42
0.14,-0.51,1.17,-0.13,-5.51,-35.85
0.11,-0.54,1.19,-1.73,-3.05,-40.07
0.07,-0.56,1.21,-3.3,-0.48,-45.31
0.03,-0.57,1.21,-4.66,2.08,-51.68
0.03,-0.57,1.21,-4.66,2.08,-51.68
-0.02,-0.56,1.2,-5.57,4.6,-59.16
-0.06,-0.54,1.18,-5.87,6.85,-67.5
-0.1,-0.51,1.18,-5.65,8.4,-76.35
-0.12,-0.47,1.18,-5.19,8.95,-85.3
-0.11,-0.44,1.16,-4.73,8.43,-94.0
-0.11,-0.44,1.16,-4.73,8.43,-94.0
-0.11,-0.41,1.13,-4.33,6.81,-102.18
-0.11,-0.38,1.11,-4.01,4.29,-109.65
-0.11,-0.36,1.08,-3.63,1.04,-116.34
-0.12,-0.33,1.06,-3.18,-2.68,-122.33
-0.14,-0.3,1.02,-2.6,-6.73,-127.76
-0.14,-0.3,1.02,-2.6,-6.73,-127.76
-0.15,-0.26,1.0,-1.92,-10.9,-132.82
-0.17,-0.23,0.96,-1.08,-14.9,-137.61
-0.18,-0.2,0.94,-0.09,-18.53,-142.25
-0.21,-0.16,0.91,1.01,-21.74,-146.8
-0.22,-0.12,0.89,2.23,-24.27,-151.46
-0.22,-0.12,0.89,2.23,-24.27,-151.46
-0.22,-0.07,0.88,3.68,-25.94,-156.18
-0.22,-0.03,0.87,5.3,-26.65,-160.77
-0.22,0.02,0.87,6.99,-26.38,-164.81
-0.22,0.07,0.86,8.66,-25.22,-168.12
-0.23,0.11,0.85,10.04,-23.25,-170.6
-0.23,0.11,0.85,10.04,-23.25,-170.6
-0.25,0.14,0.84,11.02,-20.67,-172.32
-0.25,0.17,0.83,11.67,-17.57,-173.37
-0.26,0.19,0.82,11.99,-14.03,-173.71
-0.26,0.21,0.84,11.85,-10.09,-173.38
-0.27,0.24,0.85,11.09,-5.94,-172.5
-0.27,0.24,0.85,11.09,-5.94,-172.5
-0.27,0.26,0.86,9.5,-1.71,-171.28
-0.29,0.28,0.86,7.06,2.49,-169.75
-0.31,0.29,0.86,3.85,6.5,-167.86
-0.33,0.29,0.85,0.08,10.28,-165.61
-0.35,0.3,0.86,-4.01,13.74,-162.98
-0.35,0.3,0.86,-4.01,13.74,-162.98
-0.37,0.3,0.86,-8.2,16.9,-160.14
-0.39,0.31,0.87,-12.28,19.82,-157.33
-0.39,0.32,0.89,-16.0,22.6,-154.64
-0.38,0.32,0.9,-19.26,25.31,-152.02
-0.36,0.32,0.91,-22.03,27.93,-149.3
-0.36,0.32,0.91,-22.03,27.93,-149.3
-0.36,0.33,0.92,-24.26,30.45,-146.39
-0.36,0.34,0.93,-25.83,32.82,-143.17
-0.36,0.35,0.94,-26.7,34.94,-139.63
-0.36,0.37,0.96,-27.0,36.77,-135.74
-0.36,0.38,0.97,-27.02,38.21,-131.49
-0.36,0.38,0.97,-27.02,38.21,-131.49
-0.36,0.4,0.99,-27.09,39.02,-126.85
-0.36,0.42,1.01,-27.47,39.07,-121.97
-0.35,0.44,1.03,-28.3,38.44,-117.03
-0.33,0.45,1.04,-29.6,37.19,-112.23
-0.32,0.44,1.06,-31.42,35.46,-107.46
-0.32,0.44,1.06,-31.42,35.46,-107.46
-0.31,0.42,1.07,-33.74,33.34,-102.71
-0.31,0.4,1.06,-36.36,30.84,-98.24
-0.29,0.37,1.06,-38.96,28.01,-94.2
-0.27,0.35,1.04,-41.28,24.97,-90.18
-0.26,0.32,1.03,-43.12,21.78,-86.1
-0.26,0.32,1.03,-43.12,21.78,-86.1
-0.24,0.3,1.02,-44.13,18.6,-82.11
-0.2,0.28,1.01,-44.0,15.77,-78.26
-0.16,0.26,0.99,-42.49,13.58,-74.37
-0.13,0.25,1.0,-39.52,12.19,-70.21
-0.11,0.25,1.0,-35.21,11.52,-65.73
-0.11,0.25,1.0,-35.21,11.52,-65.73
-0.11,0.25,1.0,-29.84,11.43,-60.88
-0.13,0.27,1.0,-23.8,11.64,-55.72
-0.15,0.3,1.0,-17.51,11.82,-50.36
-0.17,0.32,1.01,-11.38,11.67,-44.92
-0.17,0.33,1.02,-5.84,11.0,-39.61
-0.17,0.33,1.02,-5.84,11.0,-39.61
-0.16,0.34,1.03,-1.18,9.75,-34.47
-0.13,0.34,1.05,2.51,8.11,-29.51
-0.11,0.34,1.07,5.25,6.37,-24.66
-0.11,0.34,1.07,7.12,4.66,-19.89
-0.09,0.31,1.08,8.35,2.98,-15.73
-0.09,0.31,1.08,8.35,2.98,-15.73
-0.07,0.31,1.08,9.16,1.68,-11.61
-0.12,0.35,1.09,9.54,0.73,-6.66
-0.11,0.35,1.1,9.11,-0.49,-2.74
-0.09,0.32,1.09,7.88,-1.7,0.97
-0.13,0.36,1.07,6.7,-2.55,5.86
-0.13,0.36,1.07,6.7,-2.55,5.86
-0.13,0.37,1.09,5.54,-3.49,9.47
-0.09,0.36,1.11,4.42,-4.44,11.71
-0.09,0.38,1.12,2.95,-5.16,14.13
-0.1,0.4,1.14,0.91,-6.03,16.78
-0.11,0.4,1.14,-1.89,-7.04,19.64
-0.11,0.4,1.14,-1.89,-7.04,19.64
-0.12,0.39,1.13,-5.27,-8.27,23.18
-0.14,0.39,1.12,-8.64,-9.63,27.59
-0.17,0.39,1.11,-11.54,-11.26,31.99
-0.15,0.34,1.11,-13.68,-13.33,35.28
-0.15,0.34,1.11,-14.67,-15.26,38.73
-0.15,0.34,1.11,-14.67,-15.26,38.73
-0.19,0.36,1.12,-14.96,-17.26,42.55
-0.17,0.36,1.14,-14.74,-19.6,45.76
-0.18,0.39,1.15,-14.7,-21.89,48.76
-0.16,0.39,1.16,-15.49,-24.64,51.54
-0.13,0.38,1.15,-16.58,-27.34,54.56
-0.13,0.38,1.15,-16.58,-27.34,54.56
-0.14,0.35,1.14,-17.11,-29.41,58.44
-0.16,0.33,1.15,-16.79,-31.01,62.73
-0.18,0.34,1.15,-16.02,-32.41,67.01
-0.2,0.36,1.13,-15.27,-33.91,71.05
-0.21,0.38,1.12,-14.67,-35.66,74.81
-0.21,0.38,1.12,-14.67,-35.66,74.81
-0.22,0.38,1.11,-14.21,-37.79,77.85
-0.2,0.35,1.1,-14.05,-40.35,79.42
-0.13,0.28,1.08,-14.15,-42.81,80.55
-0.13,0.26,1.03,-13.89,-44.06,84.34
-0.19,0.3,1.01,-12.71,-44.25,90.17
-0.19,0.3,1.01,-12.71,-44.25,90.17
-0.22,0.32,1.03,-10.74,-44.09,94.11
-0.17,0.3,1.04,-9.1,-43.91,94.88
-0.13,0.28,1.02,-8.33,-43.49,94.88
-0.13,0.29,1.0,-8.09,-42.26,96.33
-0.17,0.3,0.99,-7.91,-40.23,99.14
-0.17,0.3,0.99,-7.91,-40.23,99.14
-0.21,0.3,0.98,-7.91,-37.59,102.04
-0.22,0.29,0.99,-8.54,-35.02,104.07
-0.2,0.27,0.99,-10.19,-32.74,105.31
-0.19,0.27,0.98,-12.8,-30.45,106.5
-0.18,0.26,0.95,-16.1,-27.97,108.11
-0.18,0.26,0.95,-16.1,-27.97,108.11
-0.17,0.23,0.94,-19.77,-25.36,110.08
-0.17,0.19,0.93,-23.6,-22.66,112.37
-0.18,0.16,0.93,-27.47,-19.72,114.83
-0.18,0.13,0.92,-31.19,-16.61,117.34
-0.2,0.11,0.9,-34.5,-13.55,119.95
-0.2,0.11,0.9,-34.5,-13.55,119.95
-0.23,0.08,0.88,-37.33,-10.99,122.58
-0.25,0.04,0.87,-39.89,-9.31,125.16
-0.28,0.01,0.85,-42.32,-8.69,127.68
-0.3,-0.02,0.84,-44.53,-9.19,130.12
-0.3,-0.05,0.84,-46.29,-10.69,132.29
-0.3,-0.05,0.84,-46.29,-10.69,132.29
-0.29,-0.08,0.83,-47.52,-12.87,133.95
-0.26,-0.13,0.83,-48.3,-15.46,135.01
-0.22,-0.17,0.82,-48.7,-18.38,135.55
-0.18,-0.21,0.8,-48.57,-21.36,135.85
-0.14,-0.25,0.76,-47.46,-24.01,136.19
-0.14,-0.25,0.76,-47.46,-24.01,136.19
-0.12,-0.28,0.71,-45.0,-26.26,136.8
-0.11,-0.29,0.66,-40.93,-28.28,137.8
-0.1,-0.29,0.63,-35.21,-30.25,139.1
-0.09,-0.27,0.61,-28.01,-32.06,140.3
-0.08,-0.26,0.63,-19.62,-33.34,141.0
-0.08,-0.26,0.63,-19.62,-33.34,141.0
-0.06,-0.24,0.67,-10.75,-33.66,140.95
-0.04,-0.22,0.71,-2.31,-32.85,140.35
-0.01,-0.22,0.76,5.03,-30.93,139.55
0.01,-0.22,0.81,10.89,-27.93,138.81
-0.0,-0.23,0.85,15.07,-23.83,138.19
-0.0,-0.23,0.85,15.07,-23.83,138.19
-0.04,-0.25,0.86,17.51,-18.88,137.51
-0.09,-0.26,0.86,18.45,-13.57,136.62
-0.14,-0.27,0.87,18.27,-8.3,135.4
-0.17,-0.28,0.87,17.32,-3.31,133.8
-0.19,-0.3,0.89,15.65,1.13,131.89
-0.19,-0.3,0.89,15.65,1.13,131.89
-0.19,-0.33,0.91,13.22,4.86,129.86
-0.18,-0.35,0.92,9.99,7.82,127.97
-0.17,-0.38,0.92,6.09,9.85,126.36
-0.16,-0.4,0.91,1.83,11.0,124.96
-0.15,-0.42,0.9,-2.49,11.38,123.66
-0.15,-0.42,0.9,-2.49,11.38,123.66
-0.14,-0.45,0.9,-6.6,11.18,122.52
-0.13,-0.48,0.91,-10.38,10.61,121.58
-0.14,-0.52,0.92,-13.73,9.73,120.9
-0.14,-0.56,0.94,-16.54,8.71,120.42
-0.15,-0.6,0.95,-18.86,7.76,119.99
-0.15,-0.6,0.95,-18.86,7.76,119.99
-0.17,-0.65,0.96,-20.65,6.92,119.43
-0.18,-0.69,0.95,-21.7,6.27,118.51
-0.2,-0.73,0.93,-21.66,5.95,117.02
-0.21,-0.75,0.91,-20.29,5.95,114.84
-0.22,-0.75,0.89,-17.56,6.21,111.97
-0.22,-0.75,0.89,-17.56,6.21,111.97
-0.22,-0.73,0.88,-13.65,6.54,108.33
-0.2,-0.69,0.9,-8.9,6.76,103.93
-0.16,-0.65,0.93,-4.03,6.82,99.13
-0.12,-0.61,0.97,0.23,6.79,94.46
-0.1,-0.58,1.0,3.34,6.79,90.31
-0.1,-0.58,1.0,3.34,6.79,90.31
-0.09,-0.56,1.02,4.99,6.92,86.96
-0.11,-0.54,1.02,5.13,7.21,84.53
-0.16,-0.53,1.01,4.06,7.43,82.45
-0.19,-0.56,0.98,2.41,7.47,79.75
-0.2,-0.61,0.94,0.98,7.38,76.52
-0.2,-0.61,0.94,0.98,7.38,76.52
-0.17,-0.64,0.88,0.89,6.88,73.8
-0.21,-0.59,0.91,2.97,6.18,71.91
-0.22,-0.59,0.96,5.25,5.03,68.78
-0.15,-0.67,0.89,8.25,3.72,65.29
-0.17,-0.49,0.94,12.05,2.32,64.52
-0.17,-0.49,0.94,12.05,2.32,64.52
-0.15,-0.66,0.93,14.56,0.19,63.47
-0.05,-0.66,0.91,21.42,-1.95,63.23
-0.15,-0.48,1.01,27.26,-2.02,64.41
-0.2,-0.45,1.15,28.94,-3.03,61.58
-0.12,-0.44,1.09,28.68,-3.77,55.7
-0.12,-0.44,1.09,28.68,-3.77,55.7
-0.07,-0.41,0.99,26.55,-3.93,51.21
-0.1,-0.39,1.03,23.6,-5.18,50.14
-0.11,-0.44,1.02,20.62,-6.67,49.23
-0.1,-0.5,0.97,18.48,-7.6,46.83
-0.07,-0.55,0.96,17.4,-8.41,43.42
-0.07,-0.55,0.96,17.4,-8.41,43.42
-0.06,-0.56,0.98,17.53,-9.14,40.71
-0.06,-0.54,1.0,18.86,-9.72,39.22
-0.1,-0.49,1.04,20.37,-10.07,38.25
-0.13,-0.47,1.08,20.68,-10.65,36.81
-0.14,-0.47,1.09,19.55,-11.88,34.25
-0.14,-0.47,1.09,19.55,-11.88,34.25
-0.11,-0.49,1.06,17.11,-13.52,30.42
-0.08,-0.5,1.02,14.14,-15.43,26.59
-0.05,-0.5,1.02,11.67,-17.17,23.36
-0.04,-0.51,1.02,9.95,-18.28,20.47
-0.04,-0.5,1.03,8.8,-18.82,17.84
-0.04,-0.5,1.03,8.8,-18.82,17.84
-0.04,-0.51,1.06,7.99,-18.93,14.94
-0.03,-0.51,1.09,7.08,-18.51,12.16
-0.05,-0.48,1.11,5.6,-17.9,10.12
-0.08,-0.46,1.12,3.0,-17.34,8.48
-0.1,-0.46,1.11,-0.5,-16.99,6.63
-0.1,-0.46,1.11,-0.5,-16.99,6.63
-0.1,-0.49,1.08,-4.57,-16.71,4.03
-0.07,-0.53,1.01,-8.36,-16.22,1.23
-0.06,-0.57,0.96,-10.84,-15.77,-1.02
-0.05,-0.6,0.95,-11.36,-15.35,-2.89
-0.01,-0.65,0.96,-9.86,-14.67,-5.55
-0.01,-0.65,0.96,-9.86,-14.67,-5.55
0.04,-0.67,0.98,-6.63,-13.59,-8.84
0.07,-0.64,1.02,-2.53,-12.39,-11.36
0.06,-0.62,1.07,1.5,-11.47,-12.93
0.04,-0.6,1.08,5.06,-11.06,-14.13
0.02,-0.6,1.09,7.87,-11.43,-15.38
0.02,-0.6,1.09,7.87,-11.43,-15.38
0.02,-0.6,1.09,9.92,-12.48,-16.95
0.01,-0.59,1.08,11.51,-13.91,-18.85
0.02,-0.59,1.07,12.8,-15.47,-21.11
0.03,-0.58,1.07,14.01,-17.0,-23.74
0.05,-0.56,1.08,15.21,-18.27,-26.71
0.05,-0.56,1.08,15.21,-18.27,-26.71
0.07,-0.55,1.08,16.38,-19.06,-29.95
0.09,-0.54,1.09,17.38,-19.31,-33.26
0.11,-0.52,1.09,18.02,-19.05,-36.38
0.11,-0.49,1.09,18.0,-18.43,-39.2
0.09,-0.46,1.08,17.2,-17.76,-41.8
0.09,-0.46,1.08,17.2,-17.76,-41.8
0.08,-0.44,1.07,15.62,-17.41,-44.38
0.08,-0.43,1.05,13.33,-17.44,-46.62
0.07,-0.42,1.02,10.52,-17.8,-47.82
0.05,-0.42,0.98,7.76,-18.33,-48.15
0.03,-0.43,0.96,5.8,-18.7,-48.5
0.03,-0.43,0.96,5.8,-18.7,-48.5
0.01,-0.44,0.95,5.13,-18.67,-49.69
-0.02,-0.44,0.97,5.55,-18.22,-52.21
-0.04,-0.42,0.99,6.58,-17.46,-56.39
-0.05,-0.39,1.0,7.99,-16.41,-62.27
-0.05,-0.36,1.02,9.67,-15.26,-69.4
-0.05,-0.36,1.02,9.67,-15.26,-69.4
-0.04,-0.33,1.02,11.29,-14.28,-76.87
-0.03,-0.29,1.02,12.5,-13.61,-83.84
-0.04,-0.24,1.02,13.1,-13.26,-89.71
-0.04,-0.19,1.0,13.08,-13.11,-94.37
-0.06,-0.14,0.99,12.43,-12.97,-97.95
-0.06,-0.14,0.99,12.43,-12.97,-97.95
-0.08,-0.09,0.98,11.05,-12.62,-100.86
-0.09,-0.05,0.95,8.96,-11.86,-103.5
-0.09,-0.03,0.93,6.32,-10.39,-106.2
-0.09,-0.01,0.9,3.52,-8.08,-109.07
-0.09,-0.01,0.9,0.98,-4.73,-111.96
-0.08,-0.0,0.9,0.98,-4.73,-111.96
-0.08,0.01,0.94,-0.86,-0.09,-114.66
-0.09,0.02,1.0,-1.84,5.82,-117.01
-0.12,0.05,1.04,-2.62,12.91,-119.22
-0.18,0.06,1.03,-4.66,21.58,-122.08
-0.18,0.06,1.03,-8.22,30.86,-126.22
-0.26,0.08,1.0,-8.22,30.86,-126.22
-0.3,0.1,0.99,-12.28,39.48,-131.4
-0.31,0.11,1.0,-16.19,46.56,-136.78
-0.33,0.11,1.03,-20.34,51.49,-141.47
-0.35,0.1,1.02,-25.32,53.8,-144.99
-0.35,0.1,1.02,-25.32,53.8,-144.99
-0.39,0.11,0.98,-31.28,53.66,-147.06
-0.42,0.11,0.95,-37.55,51.43,-147.58
-0.43,0.1,0.95,-43.15,47.7,-146.84
-0.42,0.09,0.98,-47.5,43.17,-145.59
-0.39,0.08,1.0,-50.44,38.46,-144.49
-0.39,0.08,1.0,-50.44,38.46,-144.49
-0.33,0.06,0.99,-51.84,34.11,-143.71
-0.3,0.06,0.96,-51.51,30.38,-143.05
-0.28,0.06,0.94,-49.08,27.44,-142.29
-0.29,0.06,0.92,-44.36,25.35,-141.38
-0.3,0.07,0.92,-37.61,23.94,-140.22
-0.3,0.07,0.92,-37.61,23.94,-140.22
-0.29,0.1,0.93,-29.61,22.94,-138.66
-0.28,0.14,0.94,-21.02,22.3,-136.6
-0.26,0.17,0.96,-12.18,22.2,-134.01
-0.24,0.21,0.96,-3.36,22.72,-130.95
-0.22,0.25,0.95,5.13,23.58,-127.5
-0.22,0.25,0.95,5.13,23.58,-127.5
-0.2,0.28,0.95,13.08,24.55,-123.64
-0.18,0.32,0.93,20.29,25.42,-119.4
-0.18,0.39,0.95,26.47,26.15,-114.86
-0.17,0.42,0.95,30.38,26.13,-110.88
-0.09,0.29,0.85,32.47,25.33,-106.2
-0.09,0.29,0.85,32.47,25.33,-106.2
-0.05,0.25,0.85,37.23,25.33,-97.97
-0.14,0.37,0.94,43.52,27.48,-87.69
-0.2,0.46,1.04,47.09,27.84,-79.43
-0.19,0.5,1.07,47.22,26.28,-74.11
-0.17,0.47,1.06,45.03,24.55,-70.1
-0.17,0.47,1.06,45.03,24.55,-70.1
-0.17,0.41,1.05,41.89,22.91,-66.13
-0.18,0.36,1.03,38.34,21.05,-62.44
-0.17,0.33,1.02,34.71,18.73,-59.79
-0.14,0.31,1.0,31.03,16.12,-58.21
-0.11,0.3,0.98,27.04,13.06,-56.66
-0.11,0.3,0.98,27.04,13.06,-56.66
-0.1,0.29,0.95,22.63,9.45,-54.19
-0.08,0.27,0.92,18.08,5.33,-50.99
-0.04,0.23,0.9,13.98,1.29,-47.26
-0.0,0.21,0.9,11.17,-1.93,-42.72
0.01,0.2,0.93,9.44,-4.05,-38.21
0.01,0.2,0.93,9.44,-4.05,-38.21
0.01,0.19,0.95,7.72,-5.29,-34.29
-0.01,0.17,0.92,5.84,-5.81,-30.26
-0.03,0.12,0.89,4.87,-5.68,-26.65
-0.03,0.03,0.87,5.16,-4.98,-23.66
-0.05,0.0,0.86,6.23,-4.19,-20.27
-0.05,0.0,0.86,6.23,-4.19,-20.27
-0.09,0.04,0.84,7.51,-3.8,-16.8
-0.09,0.08,0.85,8.35,-4.32,-14.96
-0.04,0.08,0.85,8.44,-5.73,-15.16
0.03,0.09,0.85,8.21,-7.24,-15.98
0.07,0.1,0.86,8.27,-7.88,-16.3
0.07,0.1,0.86,8.27,-7.88,-16.3
0.09,0.13,0.88,8.97,-7.31,-15.96
0.1,0.17,0.9,10.21,-5.55,-15.27
0.1,0.19,0.94,11.38,-2.9,-14.35
0.09,0.19,0.96,11.96,0.27,-12.77
0.07,0.18,0.98,11.82,3.74,-10.21
0.07,0.18,0.98,11.82,3.74,-10.21
0.04,0.15,1.01,11.01,7.23,-6.85
0.0,0.11,1.02,9.47,10.28,-3.34
-0.04,0.07,1.01,7.31,12.59,-0.06
-0.07,0.05,1.01,4.81,14.01,2.73
-0.09,0.04,1.01,2.35,14.49,4.82
-0.09,0.04,1.01,2.35,14.49,4.82
-0.08,0.02,1.02,0.32,14.25,5.96
-0.05,0.01,1.03,-1.0,13.67,6.15
-0.02,0.01,1.05,-1.53,13.16,5.72
0.0,0.02,1.06,-1.44,13.02,5.23
0.0,0.05,1.07,-1.02,13.31,5.09
0.0,0.05,1.07,-1.02,13.31,5.09
-0.01,0.06,1.08,-0.79,13.77,5.42
-0.03,0.07,1.09,-1.15,14.05,6.12
-0.04,0.06,1.07,-2.26,13.95,7.09
-0.06,0.04,1.05,-3.85,13.35,8.37
-0.07,0.02,1.03,-5.57,12.19,9.9
-0.07,0.02,1.03,-5.57,12.19,9.9
-0.08,0.01,1.02,-7.2,10.5,11.54
-0.09,-0.01,1.0,-8.54,8.37,13.1
-0.08,-0.02,0.98,-9.47,5.93,14.56
-0.07,-0.03,0.97,-9.92,3.31,15.96
-0.05,-0.04,0.97,-10.0,0.72,17.22
-0.05,-0.04,0.97,-10.0,0.72,17.22
-0.04,-0.04,0.98,-9.76,-1.44,18.27
-0.02,-0.05,1.0,-9.34,-2.96,19.07
-0.02,-0.05,1.01,-8.83,-3.83,19.67
-0.04,-0.05,1.02,-8.6,-4.24,20.07
-0.04,-0.07,1.0,-8.33,-4.25,20.16
-0.04,-0.07,1.0,-8.33,-4.25,20.16
-0.06,-0.08,0.98,-7.55,-3.7,20.19
-0.08,-0.08,0.97,-6.2,-2.95,20.13
-0.08,-0.07,0.97,-4.53,-2.31,19.62
-0.07,-0.05,0.98,-2.99,-1.86,18.83
-0.06,-0.04,0.98,-1.94,-1.72,18.24
-0.06,-0.04,0.98,-1.94,-1.72,18.24
-0.06,-0.04,0.98,-1.5,-1.96,17.86
-0.05,-0.05,0.97,-1.56,-2.42,17.67
-0.04,-0.07,0.96,-1.87,-2.99,17.54
-0.03,-0.1,0.97,-2.34,-3.67,17.49
-0.03,-0.11,0.96,-2.66,-4.35,17.51
-0.03,-0.11,0.96,-2.66,-4.35,17.51
-0.04,-0.11,0.96,-2.5,-4.73,17.38
-0.05,-0.12,0.97,-1.57,-4.69,16.93
