ax,ay,az,gx,gy,gz
-0.48,0.13,0.82,-3.02,-0.6,-2.72
-0.47,0.13,0.82,-3.03,-0.52,-2.53
-0.48,0.12,0.82,-2.91,-0.45,-2.45
-0.48,0.12,0.82,-2.91,-0.45,-2.45
-0.47,0.12,0.81,-2.66,-0.39,-2.47
-0.47,0.13,0.82,-2.35,-0.3,-2.45
-0.47,0.13,0.82,-2.03,-0.25,-2.4
-0.47,0.14,0.83,-1.86,-0.14,-2.19
-0.47,0.15,0.83,-2.05,-0.11,-2.04
-0.47,0.15,0.83,-2.05,-0.11,-2.04
-0.46,0.13,0.82,-2.37,-0.14,-2.09
-0.46,0.11,0.82,-2.55,-0.16,-2.11
-0.46,0.11,0.82,-2.49,-0.13,-1.98
-0.46,0.12,0.82,-2.26,-0.1,-1.79
-0.46,0.13,0.83,-2.1,-0.2,-1.52
-0.46,0.13,0.83,-2.1,-0.2,-1.52
-0.46,0.12,0.83,-2.19,-0.55,-1.18
-0.46,0.12,0.82,-2.46,-1.03,-0.8
-0.46,0.11,0.82,-2.66,-1.51,-0.4
-0.46,0.11,0.82,-2.72,-1.88,-0.02
-0.45,0.11,0.81,-2.61,-2.09,0.19
-0.45,0.11,0.81,-2.61,-2.09,0.19
-0.44,0.11,0.81,-2.27,-2.09,0.27
-0.44,0.11,0.82,-1.81,-1.92,0.31
-0.44,0.12,0.82,-1.38,-1.51,0.31
-0.45,0.13,0.83,-1.04,-0.94,0.26
-0.45,0.13,0.83,-0.88,-0.31,0.19
-0.45,0.13,0.83,-0.88,-0.31,0.19
-0.46,0.14,0.84,-0.93,0.23,0.13
-0.46,0.14,0.84,-1.21,0.64,0.13
-0.46,0.15,0.84,-1.65,0.93,0.23
-0.47,0.15,0.85,-2.14,1.11,0.39
-0.48,0.14,0.86,-2.73,1.22,0.58
-0.48,0.14,0.86,-2.73,1.22,0.58
-0.48,0.14,0.87,-3.39,1.28,0.83
-0.48,0.13,0.88,-4.01,1.24,1.16
-0.46,0.11,0.9,-4.71,1.11,1.64
-0.44,0.07,0.92,-5.77,0.85,2.48
-0.44,0.02,0.95,-7.2,0.42,3.88
-0.44,0.02,0.95,-7.2,0.42,3.88
-0.43,-0.07,0.99,-8.86,-0.43,6.02
-0.42,-0.18,1.05,-11.0,-1.26,9.08
-0.41,-0.34,1.12,-13.46,-1.56,13.46
-0.43,-0.54,1.21,-16.1,-1.48,19.3
-0.49,-0.77,1.32,-18.61,-0.7,26.14
-0.49,-0.77,1.32,-18.61,-0.7,26.14
-0.57,-1.06,1.41,-20.25,1.17,33.02
-0.66,-1.39,1.44,-19.77,4.25,38.61
-0.83,-1.64,1.37,-15.03,8.33,41.3
-1.06,-1.77,1.36,-4.78,11.43,39.8
-1.29,-1.74,1.44,10.37,11.94,33.26
-1.29,-1.74,1.44,10.37,11.94,33.26
-1.42,-1.56,1.59,27.83,8.78,21.27
-1.39,-1.34,1.74,43.61,1.29,4.41
-1.28,-1.14,1.82,54.19,-10.44,-15.69
-1.14,-1.01,1.82,57.81,-25.7,-37.33
-1.05,-0.91,1.73,54.24,-43.45,-58.51
-1.05,-0.91,1.73,54.24,-43.45,-58.51
-1.0,-0.83,1.57,44.02,-62.83,-78.35
-0.92,-0.81,1.34,29.05,-82.36,-97.58
-0.79,-0.83,1.08,11.86,-100.37,-116.62
-0.62,-0.88,0.85,-5.03,-115.18,-134.95
-0.47,-0.91,0.64,-18.81,-124.84,-151.81
-0.47,-0.91,0.64,-18.81,-124.84,-151.81
-0.38,-0.88,0.45,-26.48,-127.64,-166.84
-0.34,-0.8,0.29,-26.16,-123.3,-179.87
-0.37,-0.64,0.21,-17.92,-113.61,-189.98
-0.5,-0.38,0.23,-3.16,-100.2,-196.53
-0.65,-0.05,0.24,16.46,-83.77,-200.43
-0.65,-0.05,0.24,16.46,-83.77,-200.43
-0.75,0.27,0.22,39.51,-65.4,-202.79
-0.8,0.56,0.19,64.33,-46.86,-203.52
-0.85,0.84,0.28,88.69,-30.65,-201.69
-0.9,1.11,0.5,109.02,-19.72,-197.24
-0.85,1.31,0.65,119.66,-16.53,-191.12
-0.85,1.31,0.65,119.66,-16.53,-191.12
-0.68,1.37,0.57,117.31,-19.12,-184.04
-0.53,1.26,0.52,104.98,-22.98,-175.93
-0.48,1.07,0.61,87.13,-26.21,-166.42
-0.49,0.91,0.64,66.64,-28.79,-156.08
-0.49,0.76,0.59,46.16,-30.85,-146.2
-0.49,0.76,0.59,46.16,-30.85,-146.2
-0.48,0.63,0.53,28.43,-32.38,-136.93
-0.46,0.52,0.51,14.32,-32.93,-128.41
-0.45,0.42,0.52,3.7,-32.2,-120.97
-0.42,0.36,0.52,-3.18,-30.04,-114.81
-0.4,0.34,0.54,-5.57,-25.46,-109.84
-0.4,0.34,0.54,-5.57,-25.46,-109.84
-0.4,0.37,0.6,-3.32,-17.94,-105.85
-0.43,0.44,0.66,2.29,-8.1,-102.62
-0.48,0.54,0.71,9.11,2.57,-99.77
-0.53,0.63,0.73,14.57,12.12,-97.06
-0.53,0.63,0.73,16.68,18.88,-94.49
-0.56,0.67,0.73,16.68,18.88,-94.49
-0.56,0.65,0.7,15.31,22.3,-92.03
-0.54,0.61,0.7,11.63,22.81,-89.49
-0.49,0.54,0.71,7.16,21.21,-87.07
-0.43,0.47,0.69,3.27,18.72,-84.74
-0.43,0.47,0.69,1.03,16.48,-82.04
-0.42,0.44,0.66,1.03,16.48,-82.04
-0.42,0.43,0.65,0.92,15.15,-79.26
-0.43,0.45,0.64,2.67,14.86,-76.73
-0.44,0.48,0.65,5.54,15.34,-74.63
-0.44,0.5,0.67,8.68,16.35,-72.8
-0.44,0.5,0.67,8.68,16.35,-72.8
-0.47,0.54,0.7,11.48,17.91,-71.0
-0.5,0.59,0.73,13.46,19.97,-69.46
-0.52,0.64,0.75,14.22,22.25,-68.38
-0.52,0.66,0.78,13.14,24.1,-67.58
-0.51,0.65,0.8,9.58,24.93,-66.57
-0.51,0.65,0.8,9.58,24.93,-66.57
-0.5,0.61,0.81,3.31,24.35,-64.94
-0.48,0.54,0.81,-5.07,22.38,-62.68
-0.45,0.43,0.79,-14.33,19.32,-59.89
-0.42,0.33,0.77,-23.26,15.51,-56.69
-0.39,0.23,0.75,-30.72,11.23,-53.14
-0.39,0.23,0.75,-30.72,11.23,-53.14
-0.36,0.15,0.74,-36.02,6.82,-49.3
-0.33,0.1,0.72,-38.77,2.67,-45.22
-0.31,0.06,0.71,-38.86,-0.9,-40.94
-0.29,0.05,0.7,-36.58,-3.58,-36.5
-0.28,0.05,0.71,-32.39,-5.31,-31.95
-0.28,0.05,0.71,-32.39,-5.31,-31.95
-0.28,0.06,0.73,-26.93,-6.0,-27.38
-0.29,0.07,0.75,-20.93,-5.74,-22.92
-0.31,0.09,0.76,-15.07,-4.92,-18.8
-0.32,0.09,0.77,-9.73,-3.9,-15.19
-0.33,0.08,0.78,-5.13,-3.0,-12.06
-0.33,0.08,0.78,-5.13,-3.0,-12.06
-0.34,0.08,0.79,-1.39,-2.4,-9.14
-0.34,0.07,0.8,1.45,-2.25,-6.36
-0.33,0.07,0.81,3.53,-2.52,-3.71
-0.32,0.05,0.81,4.99,-3.16,-1.24
-0.31,0.03,0.8,6.01,-4.04,1.0
-0.31,0.03,0.8,6.01,-4.04,1.0
-0.3,0.01,0.8,6.94,-5.09,2.94
-0.29,-0.0,0.79,8.0,-6.18,4.66
-0.29,-0.01,0.78,9.36,-7.13,6.15
-0.28,-0.02,0.77,11.03,-7.67,7.4
-0.28,-0.02,0.77,13.02,-7.61,8.44
-0.28,-0.02,0.77,13.02,-7.61,8.44
-0.28,0.01,0.77,15.32,-6.89,9.24
-0.3,0.03,0.78,17.76,-5.65,9.68
-0.31,0.06,0.78,20.2,-4.03,10.06
-0.34,0.1,0.78,22.49,-2.2,10.61
-0.3,0.07,0.8,24.64,-0.43,11.14
-0.3,0.07,0.8,24.64,-0.43,11.14
-0.36,0.2,0.83,26.73,1.74,13.27
-0.38,0.25,0.85,27.05,3.01,13.79
-0.34,0.23,0.84,25.66,2.91,12.84
-0.34,0.2,0.82,23.45,2.93,13.24
-0.34,0.16,0.82,21.6,3.23,14.37
-0.34,0.16,0.82,21.6,3.23,14.37
-0.32,0.17,0.84,20.72,3.94,15.22
-0.32,0.22,0.87,20.2,4.76,15.82
-0.34,0.25,0.88,19.4,5.66,16.38
-0.36,0.26,0.88,18.0,6.39,17.19
-0.37,0.25,0.87,16.23,6.73,18.29
-0.37,0.25,0.87,16.23,6.73,18.29
-0.36,0.25,0.88,14.61,6.8,19.52
-0.35,0.28,0.9,13.57,6.92,20.63
-0.35,0.31,0.92,13.1,7.41,21.47
-0.36,0.35,0.93,12.99,8.27,21.87
-0.37,0.39,0.95,12.98,9.25,21.93
-0.37,0.39,0.95,12.98,9.25,21.93
-0.37,0.44,0.96,12.71,10.09,21.9
-0.37,0.48,0.98,11.98,10.57,22.09
-0.37,0.53,1.0,10.73,10.6,22.76
-0.37,0.57,1.01,8.82,10.21,24.03
-0.38,0.6,1.01,6.06,9.31,25.77
-0.38,0.6,1.01,6.06,9.31,25.77
-0.37,0.62,1.01,2.37,7.76,27.7
-0.36,0.63,0.99,-1.97,5.7,29.55
-0.34,0.62,0.98,-6.29,3.6,31.28
-0.33,0.62,0.97,-9.88,1.87,32.86
-0.35,0.62,0.95,-12.41,0.64,34.14
-0.35,0.62,0.95,-12.41,0.64,34.14
-0.36,0.63,0.93,-13.74,-0.03,34.83
-0.36,0.65,0.92,-13.76,-0.1,34.92
-0.37,0.67,0.93,-12.78,0.43,34.76
-0.4,0.71,0.95,-11.62,1.26,34.63
-0.43,0.75,0.94,-10.92,2.18,34.4
-0.43,0.75,0.94,-10.92,2.18,34.4
-0.44,0.77,0.93,-10.9,3.08,34.05
-0.42,0.79,0.95,-11.72,4.04,33.89
-0.4,0.81,0.95,-13.63,5.04,34.34
-0.4,0.83,0.95,-16.82,6.03,35.57
-0.42,0.91,0.95,-21.52,6.76,37.12
-0.42,0.91,0.95,-21.52,6.76,37.12
-0.41,0.85,0.89,-28.05,6.55,37.94
-0.41,0.79,0.88,-34.25,6.33,40.26
-0.46,0.74,0.85,-40.6,6.01,44.32
-0.51,0.69,0.82,-46.9,5.02,49.4
-0.54,0.6,0.79,-52.63,3.61,54.9
-0.54,0.6,0.79,-52.63,3.61,54.9
-0.57,0.5,0.77,-57.11,1.99,60.79
-0.59,0.41,0.74,-59.95,0.26,66.95
-0.58,0.34,0.71,-60.85,-1.55,73.06
-0.58,0.28,0.69,-59.26,-3.22,79.02
-0.59,0.26,0.69,-55.27,-4.55,84.94
-0.59,0.26,0.69,-55.27,-4.55,84.94
-0.61,0.27,0.69,-49.75,-5.73,90.67
-0.62,0.3,0.7,-43.65,-6.83,95.82
-0.61,0.33,0.73,-38.11,-7.86,100.2
-0.6,0.35,0.75,-34.29,-8.85,103.89
-0.58,0.34,0.76,-33.01,-9.61,107.07
-0.58,0.34,0.76,-33.01,-9.61,107.07
-0.55,0.3,0.76,-34.41,-10.02,109.81
-0.54,0.23,0.77,-38.28,-9.94,112.11
-0.53,0.15,0.78,-44.11,-9.28,114.19
-0.55,0.06,0.78,-51.6,-8.27,116.1
-0.58,-0.04,0.78,-60.14,-7.24,117.71
-0.58,-0.04,0.78,-60.14,-7.24,117.71
-0.61,-0.16,0.77,-68.89,-6.4,118.68
-0.64,-0.29,0.76,-76.96,-5.82,118.83
-0.64,-0.42,0.75,-83.55,-5.48,117.99
-0.62,-0.54,0.73,-87.9,-5.39,116.15
-0.6,-0.63,0.7,-89.54,-5.49,113.6
-0.6,-0.63,0.7,-89.54,-5.49,113.6
-0.56,-0.68,0.67,-88.0,-5.56,110.7
-0.54,-0.69,0.66,-83.1,-5.41,107.98
-0.53,-0.66,0.69,-75.25,-5.1,105.72
-0.53,-0.58,0.75,-65.58,-4.67,103.72
-0.53,-0.5,0.81,-56.04,-4.24,101.89
-0.53,-0.5,0.81,-56.04,-4.24,101.89
-0.57,-0.42,0.83,-48.23,-4.09,100.49
-0.56,-0.41,0.84,-42.65,-4.26,98.9
-0.59,-0.41,0.84,-38.73,-4.51,97.89
-0.58,-0.48,0.81,-35.68,-4.64,96.46
-0.57,-0.55,0.78,-31.65,-4.41,96.0
-0.57,-0.55,0.78,-31.65,-4.41,96.0
-0.65,-0.5,0.84,-26.27,-3.41,96.07
-0.67,-0.45,0.89,-21.91,-2.85,94.36
-0.63,-0.44,0.86,-19.03,-2.81,91.19
-0.62,-0.45,0.85,-16.96,-2.91,88.13
-0.62,-0.45,0.86,-15.3,-3.32,84.74
-0.62,-0.45,0.86,-15.3,-3.32,84.74
-0.59,-0.45,0.85,-13.6,-4.03,80.59
-0.57,-0.42,0.85,-11.56,-4.99,76.67
-0.56,-0.38,0.87,-9.5,-6.05,73.28
-0.56,-0.35,0.87,-7.87,-7.21,70.07
-0.56,-0.32,0.87,-6.71,-8.41,66.94
-0.56,-0.32,0.87,-6.71,-8.41,66.94
-0.56,-0.32,0.87,-6.09,-9.57,63.76
-0.53,-0.31,0.86,-5.89,-10.5,60.63
-0.51,-0.29,0.88,-6.17,-11.1,58.05
-0.49,-0.28,0.87,-6.97,-11.33,56.3
-0.49,-0.29,0.86,-7.86,-11.25,55.24
-0.49,-0.29,0.86,-7.86,-11.25,55.24
-0.49,-0.29,0.85,-8.6,-10.85,54.62
-0.49,-0.3,0.84,-9.15,-10.37,54.09
-0.5,-0.31,0.82,-9.21,-9.84,53.77
-0.5,-0.32,0.81,-8.52,-9.21,53.25
-0.5,-0.32,0.8,-6.89,-8.57,52.45
-0.5,-0.32,0.8,-6.89,-8.57,52.45
-0.5,-0.31,0.8,-4.31,-7.93,51.48
-0.49,-0.28,0.81,-1.07,-7.28,50.37
-0.48,-0.23,0.82,2.28,-6.68,49.37
-0.46,-0.19,0.83,5.24,-6.08,48.5
-0.45,-0.15,0.83,7.6,-5.56,47.83
-0.45,-0.15,0.83,7.6,-5.56,47.83
-0.46,-0.13,0.83,9.49,-5.25,46.9
-0.46,-0.11,0.82,11.06,-5.23,45.33
-0.46,-0.1,0.81,12.31,-5.52,43.07
-0.44,-0.08,0.82,13.19,-5.84,40.51
-0.42,-0.06,0.83,13.47,-5.89,37.91
-0.42,-0.06,0.83,13.47,-5.89,37.91
-0.42,-0.01,0.86,12.72,-5.54,35.64
-0.45,0.07,0.89,9.93,-4.8,33.23
-0.44,0.05,0.84,4.82,-4.2,30.15
-0.42,-0.03,0.81,-0.45,-3.04,27.29
-0.43,-0.09,0.8,-4.97,-1.66,25.33
-0.43,-0.09,0.8,-4.97,-1.66,25.33
-0.45,-0.14,0.78,-8.01,-0.1,23.6
-0.44,-0.13,0.77,-9.25,1.16,21.92
-0.44,-0.11,0.79,-8.94,1.95,20.53
-0.45,-0.09,0.81,-7.8,2.39,19.5
-0.45,-0.08,0.83,-6.6,2.24,18.75
-0.45,-0.08,0.83,-6.6,2.24,18.75
-0.45,-0.06,0.85,-5.84,1.45,18.34
-0.47,-0.05,0.85,-5.84,0.13,18.38
-0.47,-0.08,0.84,-6.16,-1.61,18.25
-0.43,-0.12,0.86,-6.29,-3.33,17.86
-0.46,-0.07,0.89,-7.01,-4.62,18.7
-0.46,-0.07,0.89,-7.01,-4.62,18.7
-0.49,-0.06,0.87,-9.31,-5.84,19.2
-0.45,-0.15,0.83,-12.08,-6.86,17.91
-0.4,-0.24,0.8,-14.04,-6.87,16.38
-0.39,-0.28,0.78,-14.85,-5.84,15.82
-0.4,-0.32,0.77,-14.06,-3.99,15.54
-0.4,-0.32,0.77,-14.06,-3.99,15.54
-0.41,-0.34,0.78,-11.47,-1.36,14.93
-0.45,-0.33,0.82,-8.25,1.38,14.06
-0.48,-0.31,0.82,-5.41,3.5,12.52
-0.49,-0.32,0.83,-3.1,4.73,10.51
-0.5,-0.31,0.86,-1.7,4.94,8.85
-0.5,-0.31,0.86,-1.7,4.94,8.85
-0.51,-0.32,0.86,-1.42,4.17,7.53
-0.53,-0.34,0.85,-1.83,2.64,6.25
-0.53,-0.37,0.86,-2.79,0.53,4.8
-0.53,-0.38,0.86,-4.5,-1.93,2.93
-0.51,-0.41,0.86,-7.08,-4.38,0.42
-0.51,-0.41,0.86,-7.08,-4.38,0.42
-0.47,-0.45,0.85,-10.31,-6.5,-2.85
-0.41,-0.51,0.87,-13.9,-7.92,-6.63
-0.36,-0.56,0.88,-17.63,-8.18,-10.44
-0.33,-0.62,0.9,-21.17,-7.14,-14.13
-0.33,-0.7,0.9,-24.11,-4.84,-17.78
-0.33,-0.7,0.9,-24.11,-4.84,-17.78
-0.35,-0.77,0.92,-26.15,-1.61,-21.54
-0.38,-0.83,0.93,-27.16,2.02,-25.5
-0.42,-0.84,0.97,-27.16,5.52,-29.71
-0.46,-0.83,1.03,-26.36,8.28,-34.15
-0.48,-0.8,1.09,-25.25,9.7,-38.65
-0.48,-0.8,1.09,-25.25,9.7,-38.65
-0.52,-0.79,1.16,-24.57,9.56,-42.83
-0.57,-0.8,1.21,-24.76,7.79,-46.67
-0.59,-0.83,1.23,-25.97,4.41,-50.63
-0.59,-0.87,1.23,-27.65,-0.45,-55.19
-0.57,-0.91,1.23,-29.09,-6.42,-60.59
-0.57,-0.91,1.23,-29.09,-6.42,-60.59
-0.53,-0.93,1.22,-29.88,-12.98,-66.62
-0.48,-0.94,1.2,-29.87,-19.47,-72.88
-0.43,-0.94,1.17,-28.9,-25.2,-79.24
-0.37,-0.95,1.12,-26.56,-29.62,-85.5
-0.34,-0.94,1.07,-22.34,-32.19,-91.18
-0.34,-0.94,1.07,-22.34,-32.19,-91.18
-0.34,-0.91,1.02,-15.83,-32.69,-96.05
-0.36,-0.85,0.97,-6.97,-31.35,-100.23
-0.41,-0.76,0.93,3.97,-28.49,-103.82
-0.47,-0.63,0.9,16.65,-24.69,-106.95
-0.53,-0.5,0.87,30.46,-20.44,-109.84
-0.53,-0.5,0.87,30.46,-20.44,-109.84
-0.57,-0.35,0.86,44.67,-16.15,-112.55
-0.62,-0.2,0.85,58.74,-11.93,-115.13
-0.67,-0.03,0.86,72.45,-7.92,-117.74
-0.71,0.16,0.89,85.24,-3.98,-120.63
-0.72,0.34,0.92,96.09,0.28,-124.2
-0.72,0.34,0.92,96.09,0.28,-124.2
-0.71,0.49,0.93,103.76,4.77,-128.4
-0.71,0.61,0.92,107.32,9.25,-132.68
-0.71,0.69,0.87,106.48,13.29,-136.29
-0.74,0.74,0.81,101.41,16.41,-138.71
-0.78,0.76,0.72,92.91,18.47,-139.99
-0.78,0.76,0.72,92.91,18.47,-139.99
-0.81,0.74,0.64,82.42,19.4,-140.64
-0.82,0.71,0.59,71.72,19.12,-141.16
-0.79,0.68,0.57,62.15,18.02,-141.69
-0.73,0.67,0.58,54.53,16.72,-141.94
-0.68,0.7,0.62,49.02,15.96,-141.57
-0.68,0.7,0.62,49.02,15.96,-141.57
-0.64,0.73,0.66,45.23,16.08,-140.38
-0.61,0.76,0.7,42.45,16.91,-138.32
-0.6,0.78,0.72,39.98,17.94,-135.41
-0.61,0.78,0.73,37.23,18.82,-131.89
-0.62,0.78,0.72,33.91,19.12,-128.14
-0.62,0.78,0.72,33.91,19.12,-128.14
-0.63,0.75,0.72,30.17,18.64,-124.55
-0.62,0.72,0.72,26.35,17.54,-121.27
-0.6,0.7,0.72,22.62,16.08,-118.27
-0.58,0.69,0.72,19.19,14.55,-115.47
-0.55,0.67,0.73,16.02,13.2,-112.79
-0.55,0.67,0.73,16.02,13.2,-112.79
-0.52,0.64,0.74,13.06,12.0,-110.1
-0.49,0.6,0.75,10.29,10.91,-107.22
-0.46,0.56,0.76,7.93,9.94,-103.99
-0.44,0.52,0.75,6.36,9.13,-100.35
-0.43,0.49,0.74,5.93,8.37,-96.25
-0.43,0.49,0.74,5.93,8.37,-96.25
-0.43,0.47,0.73,6.65,7.5,-91.79
-0.42,0.45,0.72,8.07,6.18,-87.29
-0.41,0.42,0.71,9.87,4.43,-82.9
-0.4,0.41,0.71,12.0,2.43,-78.62
-0.38,0.41,0.72,14.47,0.56,-74.36
-0.38,0.41,0.72,14.47,0.56,-74.36
-0.36,0.42,0.74,17.14,-0.79,-70.11
-0.35,0.42,0.76,19.65,-1.39,-65.91
-0.35,0.42,0.77,21.65,-1.31,-61.76
-0.36,0.41,0.76,22.94,-0.87,-57.64
-0.37,0.41,0.76,23.55,-0.32,-53.7
-0.37,0.41,0.76,23.55,-0.32,-53.7
-0.37,0.4,0.77,23.48,0.1,-50.08
-0.35,0.39,0.77,22.54,0.26,-46.69
-0.34,0.36,0.76,20.68,0.08,-43.42
-0.34,0.34,0.76,18.24,-0.33,-40.33
-0.33,0.3,0.75,15.65,-0.9,-37.33
-0.33,0.3,0.75,15.65,-0.9,-37.33
-0.32,0.28,0.76,13.41,-1.44,-34.21
-0.31,0.24,0.77,11.52,-1.81,-31.25
-0.3,0.24,0.8,9.81,-2.0,-28.1
-0.32,0.24,0.8,7.68,-2.04,-24.27
-0.34,0.22,0.78,5.56,-2.23,-20.24
-0.34,0.22,0.78,5.56,-2.23,-20.24
-0.35,0.17,0.78,4.21,-2.83,-16.74
-0.34,0.1,0.8,4.24,-3.41,-14.16
-0.31,0.07,0.84,5.5,-3.54,-12.65
-0.27,0.04,0.86,7.37,-3.02,-11.17
-0.27,0.04,0.86,9.73,-1.43,-8.56
-0.3,0.08,0.86,9.73,-1.43,-8.56
-0.36,0.14,0.86,11.43,0.29,-6.18
-0.35,0.13,0.84,12.18,0.92,-5.21
-0.34,0.12,0.82,12.32,0.77,-4.93
-0.3,0.08,0.81,12.45,0.28,-4.54
-0.3,0.08,0.81,13.51,0.11,-3.09
-0.28,0.05,0.8,13.51,0.11,-3.09
-0.26,0.03,0.83,16.08,0.56,-1.13
-0.28,0.07,0.87,19.68,1.9,1.42
-0.33,0.15,0.91,23.03,3.7,3.86
-0.37,0.19,0.93,24.74,5.23,5.18
-0.37,0.19,0.93,24.74,5.23,5.18
-0.39,0.2,0.92,24.03,5.73,5.86
-0.4,0.17,0.89,21.5,5.29,6.32
-0.38,0.14,0.9,18.08,4.29,6.42
-0.36,0.13,0.91,13.93,3.09,5.94
-0.36,0.13,0.9,9.05,1.83,5.28
-0.36,0.13,0.9,9.05,1.83,5.28
-0.37,0.12,0.87,3.72,0.72,4.7
-0.36,0.08,0.85,-1.6,-0.39,3.93
-0.34,0.04,0.84,-6.41,-1.6,2.9
-0.31,0.0,0.84,-10.29,-2.54,1.99
-0.28,-0.02,0.86,-13.06,-2.7,1.51
-0.28,-0.02,0.86,-13.06,-2.7,1.51
-0.28,-0.03,0.87,-14.82,-1.97,1.88
-0.33,-0.02,0.88,-15.74,-0.58,2.84
-0.36,-0.03,0.87,-15.83,1.05,3.51
-0.35,-0.06,0.85,-15.16,2.56,3.48
-0.36,-0.06,0.86,-13.43,3.96,3.5
-0.36,-0.06,0.86,-13.43,3.96,3.5
-0.38,-0.05,0.9,-10.78,5.42,3.7
-0.37,-0.04,0.92,-7.67,6.98,4.0
-0.39,-0.02,0.93,-4.62,8.59,4.76
-0.41,-0.01,0.94,-2.06,9.87,5.75
-0.42,-0.01,0.95,-0.01,10.56,6.66
-0.42,-0.01,0.95,-0.01,10.56,6.66
-0.42,-0.02,0.96,1.53,10.65,7.27
-0.42,-0.03,0.97,2.57,10.14,7.44
-0.42,-0.03,0.98,2.99,9.14,7.3
-0.42,-0.02,0.98,2.73,7.81,7.02
-0.43,-0.03,0.96,2.02,6.28,6.64
-0.43,-0.03,0.96,2.02,6.28,6.64
-0.41,-0.05,0.94,1.32,4.68,6.12
-0.4,-0.06,0.94,1.05,3.25,5.5
-0.38,-0.04,0.93,1.45,2.3,4.9
-0.38,-0.02,0.94,2.43,1.85,4.42
-0.38,-0.0,0.94,3.49,1.7,4.16
-0.38,-0.0,0.94,3.49,1.7,4.16
-0.39,0.01,0.94,4.0,1.53,4.04
-0.4,-0.0,0.93,3.57,1.06,3.93
-0.4,-0.01,0.91,2.5,0.21,3.79
-0.4,0.0,0.93,1.19,-0.81,3.48
-0.39,-0.02,0.9,-0.81,-2.27,2.95
-0.39,-0.02,0.9,-0.81,-2.27,2.95
-0.33,-0.05,0.89,-2.01,-3.35,2.67
-0.38,-0.0,0.88,-2.32,-3.37,4.02
-0.41,-0.0,0.89,-1.88,-3.41,4.55
-0.36,-0.02,0.88,-1.07,-3.49,2.97
-0.36,-0.03,0.86,-0.2,-3.58,2.05
-0.36,-0.03,0.86,-0.2,-3.58,2.05
-0.36,-0.03,0.87,1.68,-3.01,1.73
-0.35,-0.01,0.91,4.18,-1.71,0.98
-0.37,0.07,0.95,5.73,-0.34,0.51
-0.41,0.1,0.95,5.14,0.56,0.1
-0.42,0.06,0.93,2.81,0.77,-0.7
-0.42,0.06,0.93,2.81,0.77,-0.7
-0.41,0.01,0.91,-0.14,0.42,-1.54
-0.39,-0.04,0.91,-2.47,-0.13,-2.22
-0.37,-0.07,0.9,-3.23,-0.22,-2.82
-0.38,-0.07,0.9,-2.45,0.22,-3.31
-0.39,-0.05,0.89,-0.79,0.71,-3.72
-0.39,-0.05,0.89,-0.79,0.71,-3.72
-0.4,-0.04,0.88,1.08,0.81,-3.85
-0.41,-0.01,0.88,2.74,0.33,-3.57
-0.41,0.01,0.89,3.92,-0.8,-3.22
-0.39,0.02,0.89,4.61,-2.31,-3.05
-0.38,0.02,0.88,4.99,-3.66,-2.77
-0.38,0.02,0.88,4.99,-3.66,-2.77
-0.38,0.02,0.88,5.19,-4.64,-2.47
-0.37,0.02,0.87,5.4,-5.21,-2.5
-0.36,0.03,0.87,5.66,-5.38,-2.64
-0.36,0.03,0.87,5.74,-5.24,-2.77
-0.37,0.03,0.87,5.39,-4.97,-3.05
-0.37,0.03,0.87,5.39,-4.97,-3.05
-0.37,0.01,0.86,4.66,-4.71,-3.38
-0.36,-0.01,0.85,3.8,-4.44,-3.7
-0.36,-0.02,0.85,3.14,-4.09,-3.94
-0.36,-0.02,0.84,2.85,-3.66,-4.14
-0.36,-0.01,0.84,2.92,-3.15,-4.3
-0.36,-0.01,0.84,2.92,-3.15,-4.3
-0.35,0.01,0.85,3.04,-2.67,-4.32
-0.36,0.03,0.85,2.78,-2.33,-4.19
-0.36,0.05,0.85,1.94,-2.21,-4.06
-0.37,0.05,0.84,0.54,-2.4,-4.18
-0.36,0.04,0.85,-1.3,-2.91,-4.83
-0.36,0.04,0.85,-1.3,-2.91,-4.83
-0.33,0.02,0.86,-3.27,-3.42,-5.66
-0.34,0.03,0.86,-5.23,-3.48,-5.76
-0.37,0.03,0.86,-7.15,-3.3,-5.71
-0.36,-0.02,0.84,-8.61,-3.14,-6.55
-0.35,-0.05,0.82,-8.96,-2.58,-7.33
-0.35,-0.05,0.82,-8.96,-2.58,-7.33
