ax,ay,az,gx,gy,gz
0.03,0.04,1.01,-6.0,-3.96,-7.86
0.04,0.04,1.01,-7.68,-4.84,-7.86
0.06,0.03,1.01,-9.39,-5.84,-7.88
0.07,0.01,1.0,-11.05,-6.9,-7.79
0.07,0.01,1.0,-11.05,-6.9,-7.79
0.08,-0.01,1.0,-12.61,-7.95,-7.55
0.07,-0.02,0.98,-14.02,-8.94,-7.12
0.06,-0.04,0.97,-15.21,-9.96,-6.74
0.08,-0.06,0.95,-15.78,-10.94,-6.92
0.11,-0.1,0.94,-15.8,-11.53,-7.27
0.11,-0.1,0.94,-15.8,-11.53,-7.27
0.12,-0.13,0.91,-14.87,-11.74,-7.02
0.12,-0.13,0.91,-12.66,-11.32,-6.52
0.11,-0.1,0.93,-9.64,-10.42,-6.52
0.11,-0.05,0.95,-6.86,-9.33,-6.66
0.1,-0.03,0.95,-4.83,-8.4,-6.69
0.1,-0.03,0.95,-4.83,-8.4,-6.69
0.1,-0.03,0.93,-3.38,-7.58,-6.98
0.12,-0.05,0.93,-1.99,-6.72,-7.5
0.12,-0.05,0.93,-0.16,-5.66,-7.79
0.11,-0.03,0.94,2.16,-4.47,-7.77
0.09,-0.01,0.97,4.48,-3.41,-7.64
0.09,-0.01,0.97,4.48,-3.41,-7.64
0.07,0.01,0.99,6.29,-2.61,-7.4
0.05,0.02,1.0,7.09,-2.15,-7.17
0.03,0.02,1.0,6.77,-2.05,-7.37
0.04,-0.0,0.99,5.77,-2.15,-8.02
0.05,-0.03,1.0,4.76,-2.2,-8.68
0.05,-0.03,1.0,4.76,-2.2,-8.68
0.05,-0.03,1.02,3.92,-2.02,-9.24
0.05,-0.02,1.02,3.13,-1.58,-10.08
0.04,-0.02,1.04,2.39,-0.82,-11.28
0.04,-0.03,1.06,1.74,0.22,-12.66
0.03,-0.04,1.08,1.17,1.45,-13.91
0.03,-0.04,1.08,1.17,1.45,-13.91
0.01,-0.04,1.09,0.61,2.7,-14.95
-0.0,-0.04,1.12,0.15,3.92,-15.84
-0.03,-0.04,1.13,-0.19,4.99,-16.7
-0.05,-0.05,1.13,-0.36,5.82,-17.79
-0.05,-0.05,1.12,-0.15,6.37,-19.15
-0.05,-0.05,1.12,-0.15,6.37,-19.15
-0.05,-0.03,1.12,0.69,6.64,-20.54
-0.03,-0.02,1.11,2.2,6.66,-21.78
-0.0,0.0,1.12,4.13,6.42,-22.75
0.03,0.02,1.13,6.29,6.05,-23.22
0.03,0.02,1.13,8.45,5.79,-23.15
0.04,0.03,1.13,8.45,5.79,-23.15
0.03,0.04,1.12,10.46,5.57,-22.62
0.02,0.03,1.11,12.25,5.28,-21.7
-0.01,0.03,1.09,13.88,4.79,-20.42
-0.03,0.04,1.08,15.43,4.13,-19.05
-0.03,0.04,1.08,16.93,3.28,-17.72
-0.04,0.05,1.07,16.93,3.28,-17.72
-0.05,0.06,1.05,18.35,2.29,-16.54
-0.05,0.08,1.04,19.58,1.19,-15.49
-0.05,0.09,1.02,20.44,0.05,-14.52
-0.06,0.1,1.02,20.92,-1.03,-13.55
-0.06,0.1,1.02,20.92,-1.03,-13.55
-0.06,0.12,1.01,20.99,-1.94,-12.48
-0.07,0.13,0.99,20.63,-2.67,-11.28
-0.09,0.13,0.98,19.82,-3.32,-9.95
-0.1,0.14,0.96,18.48,-4.02,-8.63
-0.1,0.13,0.93,16.62,-4.92,-7.48
-0.1,0.13,0.93,16.62,-4.92,-7.48
-0.1,0.11,0.9,14.45,-6.04,-6.41
-0.09,0.09,0.88,12.27,-7.27,-5.42
-0.09,0.07,0.85,10.35,-8.46,-4.48
-0.08,0.06,0.82,8.84,-9.58,-3.5
-0.07,0.04,0.81,7.86,-10.46,-2.51
-0.07,0.04,0.81,7.86,-10.46,-2.51
-0.07,0.04,0.81,7.4,-10.93,-1.53
-0.05,0.05,0.82,7.38,-10.8,-0.73
-0.03,0.06,0.83,7.61,-9.9,-0.1
-0.0,0.05,0.84,7.77,-8.49,0.48
0.01,0.05,0.86,7.49,-6.64,1.1
0.01,0.05,0.86,7.49,-6.64,1.1
0.02,0.04,0.88,6.77,-4.34,1.69
0.02,0.03,0.89,5.84,-1.61,2.24
0.02,0.01,0.9,4.77,1.35,2.8
0.02,-0.0,0.9,3.61,4.28,3.41
0.0,-0.02,0.91,2.41,6.98,4.06
0.0,-0.02,0.91,2.41,6.98,4.06
-0.01,-0.02,0.91,1.38,9.29,4.66
-0.04,-0.03,0.91,0.56,10.97,5.11
-0.04,-0.03,0.9,-0.21,11.77,5.41
-0.04,-0.03,0.89,-1.02,11.58,5.73
-0.02,-0.03,0.89,-1.87,10.5,6.23
-0.02,-0.03,0.89,-1.87,10.5,6.23
-0.01,-0.04,0.88,-2.73,8.69,6.96
-0.01,-0.04,0.88,-3.52,6.44,7.87
0.0,-0.04,0.87,-4.18,3.97,8.89
0.01,-0.04,0.87,-4.68,1.48,9.96
0.02,-0.03,0.88,-5.04,-0.81,10.98
0.02,-0.03,0.88,-5.04,-0.81,10.98
0.02,-0.02,0.89,-5.36,-2.79,11.8
0.01,-0.02,0.89,-5.88,-4.6,12.43
0.0,-0.01,0.88,-6.71,-6.44,12.94
0.0,-0.01,0.86,-7.78,-8.4,13.39
0.01,-0.0,0.85,-9.03,-10.54,13.84
0.01,-0.0,0.85,-9.03,-10.54,13.84
0.02,-0.0,0.84,-10.45,-12.79,14.33
0.03,-0.01,0.84,-11.99,-15.1,14.88
0.03,-0.02,0.83,-13.66,-17.25,15.47
0.04,-0.03,0.83,-15.4,-19.13,16.06
0.06,-0.04,0.84,-17.21,-20.66,16.63
0.06,-0.04,0.84,-17.21,-20.66,16.63
0.07,-0.05,0.85,-18.97,-21.68,17.12
0.06,-0.06,0.88,-20.54,-21.93,17.46
0.04,-0.05,0.91,-21.76,-21.3,17.58
0.01,-0.02,0.94,-22.57,-19.83,17.54
-0.02,0.01,0.98,-23.26,-17.84,17.33
-0.02,0.01,0.98,-23.26,-17.84,17.33
-0.05,0.04,1.02,-24.31,-15.64,16.91
-0.07,0.05,1.04,-26.12,-13.42,16.22
-0.08,0.05,1.05,-28.73,-11.36,15.44
-0.09,0.05,1.06,-31.84,-9.44,14.78
-0.09,0.04,1.07,-35.2,-7.69,14.4
-0.09,0.04,1.07,-35.2,-7.69,14.4
-0.1,0.02,1.09,-38.8,-6.2,14.33
-0.11,-0.0,1.1,-42.75,-4.89,14.45
-0.12,-0.05,1.09,-46.82,-3.77,14.59
-0.12,-0.1,1.08,-50.55,-3.08,14.74
-0.11,-0.16,1.07,-53.57,-2.96,14.93
-0.11,-0.16,1.07,-53.57,-2.96,14.93
-0.1,-0.21,1.06,-55.44,-3.36,15.28
-0.11,-0.25,1.04,-55.97,-4.28,15.78
-0.12,-0.29,1.01,-54.98,-5.68,16.28
-0.12,-0.33,0.99,-52.44,-7.53,16.48
-0.09,-0.37,0.96,-48.38,-9.69,16.28
-0.09,-0.37,0.96,-48.38,-9.69,16.28
-0.05,-0.4,0.91,-42.92,-11.85,15.52
0.03,-0.46,0.88,-36.17,-13.47,14.05
0.13,-0.54,0.86,-28.02,-13.73,11.6
0.23,-0.64,0.78,-17.98,-11.73,8.35
0.29,-0.72,0.65,-5.21,-6.98,4.36
0.29,-0.72,0.65,-5.21,-6.98,4.36
0.36,-0.82,0.53,11.76,0.93,-0.3
0.44,-0.92,0.4,34.81,12.82,-5.27
0.49,-0.97,0.28,64.76,28.32,-9.74
0.48,-0.92,0.22,101.13,46.79,-12.85
0.37,-0.73,0.24,143.18,67.76,-14.6
0.37,-0.73,0.24,143.18,67.76,-14.6
0.18,-0.47,0.34,189.02,89.82,-15.65
-0.02,-0.15,0.46,235.72,110.64,-16.28
-0.27,0.23,0.6,247.58,127.8,-16.01
-0.52,0.68,0.94,247.58,138.98,-13.95
-0.87,1.32,1.73,247.58,146.37,-10.49
-0.87,1.32,1.73,247.58,146.37,-10.49
-1.04,1.95,1.97,247.58,149.81,-9.64
-0.9,2.02,1.97,247.58,144.24,-13.75
-0.74,2.02,1.92,247.58,125.29,-19.15
-0.68,2.02,1.9,247.58,97.45,-20.97
-0.39,2.02,1.74,247.58,68.11,-19.44
-0.39,2.02,1.74,247.58,68.11,-19.44
-0.13,1.75,1.6,161.4,42.16,-14.11
-0.06,1.32,1.61,66.98,18.96,-5.89
-0.05,0.92,1.57,-25.65,-0.77,1.49
-0.02,0.5,1.43,-110.88,-18.89,6.72
0.03,0.06,1.23,-184.65,-36.4,10.57
0.03,0.06,1.23,-184.65,-36.4,10.57
0.09,-0.34,1.17,-243.54,-52.73,14.16
0.19,-0.68,0.98,-252.41,-64.47,18.35
0.2,-0.99,0.74,-252.41,-69.97,21.71
0.16,-1.29,0.52,-252.41,-74.54,21.5
0.26,-1.58,0.28,-252.41,-77.05,16.76
0.26,-1.58,0.28,-252.41,-77.05,16.76
0.45,-1.75,0.1,-252.41,-73.93,9.62
0.59,-1.65,0.24,-252.41,-66.92,3.19
0.56,-1.23,0.59,-208.38,-57.39,-1.5
0.39,-0.78,0.84,-164.16,-45.61,-6.24
0.19,-0.47,0.95,-127.24,-34.23,-12.3
0.19,-0.47,0.95,-127.24,-34.23,-12.3
0.12,-0.36,0.9,-97.82,-26.5,-18.7
0.2,-0.41,0.74,-72.83,-21.34,-23.41
0.25,-0.46,0.74,-49.38,-17.22,-24.91
0.25,-0.42,0.85,-27.98,-13.74,-24.71
0.26,-0.36,0.95,-10.15,-9.85,-24.76
0.26,-0.36,0.95,-10.15,-9.85,-24.76
0.26,-0.37,1.01,2.82,-4.69,-25.86
0.22,-0.43,1.01,9.95,2.11,-28.36
0.15,-0.55,0.89,11.98,9.91,-32.44
0.08,-0.67,0.72,12.57,17.83,-37.6
0.03,-0.8,0.56,16.29,26.05,-43.14
0.03,-0.8,0.56,16.29,26.05,-43.14
0.01,-0.89,0.47,25.79,34.6,-48.59
-0.02,-0.83,0.46,41.78,42.87,-53.15
-0.14,-0.57,0.55,63.79,50.19,-55.9
-0.29,-0.27,0.68,90.05,55.39,-56.74
-0.41,0.04,0.84,117.9,57.33,-55.71
-0.41,0.04,0.84,117.9,57.33,-55.71
-0.58,0.4,1.18,143.39,55.91,-53.0
-0.69,0.74,1.51,159.65,50.37,-50.79
-0.62,0.94,1.36,160.05,41.13,-51.49
-0.5,1.03,1.05,145.74,29.0,-53.39
-0.41,0.98,0.96,120.7,14.44,-55.26
-0.41,0.98,0.96,120.7,14.44,-55.26
-0.28,0.79,1.0,87.48,-1.03,-57.99
-0.15,0.58,1.04,49.55,-15.09,-61.63
-0.01,0.34,1.04,11.81,-26.16,-66.07
0.11,0.09,1.04,-21.1,-31.49,-70.57
0.18,-0.18,0.9,-45.1,-27.95,-74.57
0.18,-0.18,0.9,-45.1,-27.95,-74.57
0.2,-0.45,0.69,-57.18,-16.64,-78.95
0.24,-0.74,0.5,-56.42,-1.03,-83.77
0.29,-0.98,0.25,-41.46,18.34,-87.39
0.23,-1.09,-0.08,-9.87,41.1,-88.28
0.04,-0.96,-0.23,38.31,64.43,-86.17
0.04,-0.96,-0.23,38.31,64.43,-86.17
-0.32,-0.42,-0.08,99.35,85.24,-80.56
-0.65,0.17,0.24,167.36,98.48,-71.69
-0.99,1.08,0.93,239.71,98.21,-56.18
-1.36,1.97,1.97,247.58,87.68,-38.26
-1.34,2.02,1.97,247.58,74.21,-29.77
-1.34,2.02,1.97,247.58,74.21,-29.77
-1.0,2.02,1.88,247.58,51.97,-30.4
-0.87,2.02,1.56,247.58,21.24,-32.57
-0.77,2.02,1.39,247.58,-16.68,-34.74
-0.48,2.02,1.19,236.59,-55.94,-38.66
-0.03,2.02,1.04,160.09,-90.63,-41.13
-0.03,2.02,1.04,160.09,-90.63,-41.13
0.31,1.77,0.92,77.43,-116.8,-36.32
0.35,1.35,0.82,-5.33,-133.3,-24.76
0.33,0.93,0.66,-85.06,-140.67,-13.4
0.36,0.51,0.5,-159.15,-141.25,-6.76
0.39,0.16,0.41,-225.14,-138.07,-4.47
0.39,0.16,0.41,-225.14,-138.07,-4.47
0.42,-0.14,0.4,-252.41,-131.95,-5.02
0.45,-0.48,0.62,-252.41,-122.11,-7.78
0.38,-1.0,0.71,-252.41,-106.59,-13.22
0.47,-1.35,0.2,-252.41,-90.78,-20.12
0.63,-1.42,-0.4,-252.41,-78.83,-24.19
0.63,-1.42,-0.4,-252.41,-78.83,-24.19
0.63,-1.28,-0.47,-247.68,-67.28,-20.3
0.43,-1.01,0.08,-187.17,-52.54,-11.63
0.13,-0.73,0.66,-125.05,-35.2,-7.8
-0.03,-0.33,1.04,-64.98,-20.89,-11.8
-0.18,0.12,1.22,-13.22,-10.26,-17.76
-0.18,0.12,1.22,-13.22,-10.26,-17.76
-0.32,0.48,1.34,27.69,-7.95,-21.77
-0.34,0.7,1.38,55.78,-10.71,-25.58
-0.2,0.85,1.37,67.8,-15.11,-31.12
0.08,0.8,1.36,62.17,-22.08,-35.48
0.09,0.86,1.28,42.51,-30.98,-30.74
0.09,0.86,1.28,42.51,-30.98,-30.74
0.05,0.94,1.15,12.75,-41.1,-24.26
0.19,0.73,1.12,-23.47,-51.18,-28.41
0.42,0.31,1.1,-62.38,-56.64,-42.51
0.48,-0.1,0.96,-99.49,-53.64,-55.02
0.28,-0.32,0.77,-129.04,-44.87,-59.95
0.28,-0.32,0.77,-129.04,-44.87,-59.95
0.15,-0.61,0.51,-147.62,-35.29,-63.3
0.07,-0.73,0.23,-150.33,-25.65,-65.31
0.05,-0.85,0.13,-137.52,-15.13,-67.82
0.0,-0.78,0.19,-111.8,-3.98,-69.32
-0.09,-0.43,0.45,-76.01,4.81,-66.78
-0.09,-0.43,0.45,-76.01,4.81,-66.78
-0.17,0.04,0.77,-35.91,9.36,-60.25
-0.23,0.48,1.04,1.9,9.56,-51.41
-0.27,0.78,1.24,32.35,6.62,-43.44
-0.33,0.91,1.27,53.85,3.19,-39.07
-0.25,0.86,1.29,66.01,-1.94,-42.0
-0.25,0.86,1.29,66.01,-1.94,-42.0
0.06,0.63,1.22,69.52,-7.31,-50.08
0.13,0.58,1.15,68.93,-10.89,-48.62
0.13,0.67,1.2,66.09,-12.52,-41.55
0.13,0.66,1.17,57.42,-12.09,-34.78
0.12,0.59,1.04,42.79,-11.05,-30.81
0.12,0.59,1.04,42.79,-11.05,-30.81
0.1,0.42,0.93,24.34,-9.76,-30.42
0.1,0.19,0.85,5.63,-7.84,-33.27
0.1,-0.01,0.76,-8.84,-4.38,-37.75
0.09,-0.19,0.66,-14.44,0.57,-42.6
0.11,-0.28,0.51,-9.1,6.43,-46.93
0.11,-0.28,0.51,-9.1,6.43,-46.93
0.16,-0.23,0.36,6.16,12.47,-49.42
0.2,-0.07,0.39,29.14,18.31,-48.82
0.12,0.25,0.58,57.7,23.5,-44.8
-0.05,0.61,0.85,88.56,27.22,-38.29
-0.23,1.0,1.12,116.6,28.17,-30.53
-0.23,1.0,1.12,116.6,28.17,-30.53
-0.36,1.4,1.24,136.3,26.84,-23.4
-0.29,1.52,1.21,144.48,23.49,-20.46
-0.18,1.67,1.23,141.18,18.68,-16.96
-0.21,1.71,1.07,124.87,10.73,-7.54
-0.18,1.55,0.94,98.69,0.58,2.19
-0.18,1.55,0.94,98.69,0.58,2.19
-0.03,1.35,0.86,65.25,-8.0,8.63
0.09,1.14,0.78,25.11,-14.65,12.55
0.1,0.92,0.78,-17.82,-20.01,15.44
0.09,0.66,0.72,-58.56,-23.97,18.11
0.16,0.35,0.61,-92.4,-25.68,20.24
0.16,0.35,0.61,-92.4,-25.68,20.24
0.26,0.02,0.66,-114.74,-23.05,21.5
0.28,-0.31,0.64,-120.71,-14.23,22.47
0.3,-0.56,0.31,-107.67,-2.21,24.52
0.31,-0.59,0.08,-77.86,10.28,28.45
0.3,-0.4,0.11,-37.25,23.78,34.02
0.3,-0.4,0.11,-37.25,23.78,34.02
0.3,-0.16,0.32,11.14,38.72,40.04
0.28,0.11,0.55,63.19,53.54,46.48
0.2,0.53,0.83,110.66,67.05,53.28
0.06,0.77,0.94,147.52,76.49,61.09
-0.16,1.01,1.08,178.05,81.74,69.42
-0.16,1.01,1.08,178.05,81.74,69.42
-0.47,1.31,1.36,200.76,83.03,76.53
-0.67,1.64,1.61,214.34,78.58,80.14
-0.7,1.92,1.78,216.9,68.85,78.89
-0.57,2.02,1.87,206.82,51.43,74.74
-0.36,2.02,1.63,180.24,26.26,70.98
-0.36,2.02,1.63,180.24,26.26,70.98
-0.27,1.92,1.45,137.57,-2.25,71.34
-0.06,1.79,1.14,79.0,-29.36,74.31
0.17,1.51,0.8,9.79,-51.86,79.55
0.24,1.12,0.6,-63.04,-68.84,88.2
0.25,0.71,0.44,-135.52,-79.52,97.38
0.25,0.71,0.44,-135.52,-79.52,97.38
0.27,0.35,0.4,-204.64,-86.23,104.53
0.33,-0.0,0.47,-252.41,-92.9,109.63
0.48,-0.37,0.74,-252.41,-98.71,114.16
0.46,-1.08,0.82,-252.41,-95.69,117.12
0.38,-1.81,-0.14,-252.41,-84.66,114.13
0.38,-1.81,-0.14,-252.41,-84.66,114.13
0.53,-1.98,-1.2,-252.41,-72.7,106.42
0.7,-1.98,-1.18,-238.46,-54.14,102.35
0.65,-1.5,-0.3,-156.05,-28.33,101.67
0.39,-0.81,0.34,-67.51,-0.55,100.6
0.14,-0.16,0.73,20.21,20.33,98.76
0.14,-0.16,0.73,20.21,20.33,98.76
-0.09,0.34,0.82,95.11,40.87,94.59
-0.5,0.91,1.3,156.16,61.44,87.16
-0.7,1.46,1.91,205.74,69.66,79.5
-0.59,1.77,1.83,230.78,73.05,69.25
-0.39,1.97,1.61,225.39,70.22,57.73
-0.39,1.97,1.61,225.39,70.22,57.73
-0.26,2.02,1.21,184.9,60.95,47.9
-0.18,1.77,1.11,118.28,44.01,41.8
-0.08,1.16,1.37,49.76,23.56,41.3
0.08,0.6,1.25,-16.11,7.83,45.01
0.15,0.22,1.0,-74.59,-4.62,53.15
0.15,0.22,1.0,-74.59,-4.62,53.15
0.09,0.04,0.82,-122.98,-14.3,64.31
-0.02,-0.15,0.72,-160.33,-20.71,74.06
-0.1,-0.46,0.66,-186.55,-24.18,78.18
-0.11,-0.83,0.59,-200.25,-26.47,76.05
-0.11,-0.83,0.59,-200.35,-26.64,70.15
-0.04,-1.11,0.36,-200.35,-26.64,70.15
0.14,-1.29,0.03,-185.91,-22.05,63.28
0.39,-1.35,-0.03,-155.66,-13.24,58.29
0.49,-1.06,0.22,-110.22,-1.33,58.29
0.36,-0.6,0.53,-56.55,13.23,62.92
0.36,-0.6,0.53,-3.76,29.35,69.2
0.1,-0.19,0.8,-3.76,29.35,69.2
-0.26,0.18,1.13,43.26,42.89,76.21
-0.67,0.67,1.67,80.91,49.56,85.03
-0.87,1.12,1.81,100.3,51.59,90.55
-0.78,1.29,1.45,99.84,49.4,87.17
-0.78,1.29,1.45,99.84,49.4,87.17
-0.5,1.12,1.3,86.49,40.77,76.19
-0.22,0.85,1.38,64.47,27.63,65.86
-0.01,0.64,1.37,34.86,14.81,62.25
0.03,0.48,1.15,-1.84,5.07,64.99
0.0,0.28,0.92,-42.78,-1.91,69.58
0.0,0.28,0.92,-42.78,-1.91,69.58
0.04,0.0,0.81,-84.21,-5.91,72.37
0.09,-0.35,0.84,-123.47,-6.7,72.98
0.05,-0.84,0.96,-155.89,-4.86,71.76
0.03,-1.27,0.71,-171.93,-1.61,69.02
0.23,-1.56,0.01,-167.09,6.29,65.81
0.23,-1.56,0.01,-167.09,6.29,65.81
0.38,-1.75,-0.38,-141.86,20.13,65.71
0.25,-1.48,0.1,-97.18,33.02,71.61
-0.04,-0.96,0.68,-41.57,43.17,81.53
-0.34,-0.48,1.0,13.27,52.27,90.53
-0.65,-0.09,1.26,59.94,58.83,95.14
-0.65,-0.09,1.26,59.94,58.83,95.14
-0.93,0.35,1.74,94.92,58.19,95.3
-0.96,0.87,1.94,112.55,47.5,93.63
-0.74,1.11,1.62,106.77,33.08,87.94
-0.3,0.95,1.41,82.46,14.77,77.41
0.03,0.71,1.43,45.97,-4.27,68.82
0.03,0.71,1.43,45.97,-4.27,68.82
0.19,0.4,1.27,-0.25,-19.38,63.86
0.19,0.05,1.01,-51.1,-29.13,60.25
0.17,-0.42,0.83,-99.61,-33.44,54.85
0.16,-0.87,0.68,-139.78,-32.86,47.34
0.22,-1.28,0.25,-167.0,-26.44,39.5
0.22,-1.28,0.25,-167.0,-26.44,39.5
0.42,-1.82,-0.22,-175.92,-11.86,33.49
0.6,-1.98,-0.51,-160.13,8.96,31.86
0.56,-1.98,-0.25,-120.0,29.44,35.58
0.23,-1.46,0.13,-64.26,47.86,43.89
-0.15,-0.82,0.49,-3.8,62.51,54.5
-0.15,-0.82,0.49,-3.8,62.51,54.5
-0.47,-0.28,0.89,53.63,71.13,65.75
-0.75,0.16,1.3,100.15,72.56,75.76
-0.98,0.54,1.66,129.35,64.62,81.82
-1.0,0.85,1.85,139.41,47.72,81.75
-0.71,0.84,1.74,132.48,27.43,74.57
-0.71,0.84,1.74,132.48,27.43,74.57
-0.35,0.58,1.65,114.78,7.3,64.57
-0.09,0.39,1.58,89.29,-11.68,57.59
0.06,0.29,1.39,56.58,-28.58,54.58
0.14,0.15,1.13,19.16,-41.88,53.49
0.24,-0.09,0.94,-19.33,-49.52,52.29
0.24,-0.09,0.94,-19.33,-49.52,52.29
0.36,-0.35,0.84,-56.86,-49.56,49.88
0.44,-0.66,0.81,-91.81,-40.9,45.51
0.42,-1.09,0.72,-117.59,-25.26,38.73
0.38,-1.5,0.35,-123.51,-8.05,31.71
0.31,-1.65,-0.07,-108.6,7.68,28.77
0.31,-1.65,-0.07,-108.6,7.68,28.77
0.12,-1.44,-0.01,-78.9,22.42,31.32
-0.04,-1.06,0.45,-37.41,36.05,35.5
-0.07,-0.64,0.84,7.01,48.47,37.41
-0.07,-0.3,1.03,44.02,59.27,36.43
-0.05,-0.19,1.01,71.64,68.0,34.56
-0.05,-0.19,1.01,71.64,68.0,34.56
-0.18,-0.09,0.96,94.79,72.02,37.5
-0.42,0.02,1.06,116.58,70.35,44.34
-0.74,0.27,1.51,136.52,62.74,52.07
-0.93,0.61,1.83,146.95,48.05,56.62
-0.82,0.81,1.73,142.0,30.23,54.23
-0.82,0.81,1.73,142.0,30.23,54.23
-0.47,0.72,1.47,124.85,11.47,45.81
-0.1,0.45,1.36,99.55,-7.21,37.0
0.15,0.15,1.29,67.08,-23.4,32.23
0.24,-0.02,1.18,29.09,-35.32,31.19
0.28,-0.22,1.14,-11.62,-41.63,29.79
0.28,-0.22,1.14,-11.62,-41.63,29.79
0.24,-0.51,1.11,-49.71,-41.22,25.4
0.12,-0.91,0.93,-77.28,-35.74,18.48
0.09,-1.24,0.57,-89.1,-29.14,10.5
0.14,-1.5,0.19,-84.52,-19.94,3.38
0.21,-1.6,0.07,-62.76,-7.85,-2.11
0.21,-1.6,0.07,-62.76,-7.85,-2.11
0.27,-1.4,0.35,-25.86,4.77,-5.47
0.23,-1.01,0.67,18.79,18.71,-6.65
0.15,-0.7,0.84,62.58,32.99,-7.59
0.07,-0.52,0.83,101.97,46.41,-9.25
0.05,-0.45,0.78,137.21,58.6,-11.02
0.05,-0.45,0.78,137.21,58.6,-11.02
-0.06,-0.32,0.8,170.19,67.77,-9.18
-0.29,-0.21,0.85,202.94,71.98,-3.9
-0.5,-0.05,0.98,237.38,71.45,2.48
-0.73,0.3,1.35,247.58,67.71,9.56
-1.07,0.97,1.97,247.58,61.53,13.57
-1.07,0.97,1.97,247.58,61.53,13.57
-0.91,1.39,1.97,247.58,47.4,8.92
-0.54,1.52,1.67,247.58,28.94,-2.48
-0.24,1.35,1.41,245.18,3.08,-12.68
-0.01,0.96,1.44,192.42,-23.66,-17.1
0.16,0.61,1.36,129.03,-43.86,-16.82
0.16,0.61,1.36,129.03,-43.86,-16.82
0.22,0.28,1.31,61.29,-58.34,-15.26
0.13,-0.07,1.38,-2.89,-69.77,-15.09
0.07,-0.48,1.6,-57.02,-79.02,-18.86
0.08,-0.74,1.32,-96.67,-81.48,-26.44
0.04,-0.97,0.58,-120.91,-73.09,-36.89
0.04,-0.97,0.58,-120.91,-73.09,-36.89
0.1,-1.32,0.15,-126.3,-60.68,-48.92
0.19,-1.53,0.02,-109.52,-46.76,-58.58
0.2,-1.38,0.22,-73.52,-33.34,-63.4
0.07,-0.92,0.48,-27.18,-21.7,-63.79
-0.15,-0.43,0.63,21.39,-13.16,-61.94
-0.15,-0.43,0.63,21.39,-13.16,-61.94
-0.37,-0.03,0.74,67.19,-8.92,-59.53
-0.56,0.32,0.86,107.18,-9.98,-57.06
-0.63,0.64,0.98,138.54,-15.82,-55.16
-0.64,0.99,1.29,160.15,-24.17,-54.0
-0.56,1.59,1.7,169.78,-36.55,-51.88
-0.56,1.59,1.7,169.78,-36.55,-51.88
-0.33,1.65,1.45,158.39,-50.89,-50.8
-0.13,1.51,1.35,136.92,-65.07,-48.71
0.02,1.33,1.51,107.92,-76.42,-45.44
0.16,1.2,1.42,67.01,-84.45,-41.97
0.2,1.07,1.02,13.71,-88.83,-38.68
0.2,1.07,1.02,13.71,-88.83,-38.68
0.2,0.79,0.74,-46.49,-89.93,-36.86
0.23,0.44,0.64,-108.05,-88.3,-37.33
0.28,0.09,0.56,-168.63,-83.23,-40.0
0.37,-0.29,0.66,-225.01,-73.78,-44.23
0.33,-0.89,1.15,-252.41,-62.05,-49.74
0.33,-0.89,1.15,-252.41,-62.05,-49.74
0.25,-1.65,0.85,-252.41,-48.72,-58.13
0.18,-1.98,-0.52,-252.41,-29.27,-69.39
0.11,-1.98,-1.18,-235.69,-8.23,-79.14
-0.02,-1.44,-0.6,-163.87,5.41,-80.76
-0.14,-0.7,0.25,-76.09,10.94,-74.46
-0.14,-0.7,0.25,-76.09,10.94,-74.46
-0.22,-0.09,0.83,11.37,14.77,-66.17
-0.33,0.5,1.18,87.87,20.34,-59.69
-0.63,1.19,1.93,145.9,25.48,-56.44
-0.7,1.78,1.97,174.06,23.49,-56.47
-0.57,2.02,1.36,166.85,16.93,-58.75
-0.57,2.02,1.36,166.85,16.93,-58.75
-0.54,2.02,0.96,136.99,3.23,-59.31
-0.37,2.02,1.22,97.98,-16.42,-59.9
-0.03,1.68,1.36,50.9,-33.96,-61.86
0.28,1.25,1.32,-2.7,-45.9,-62.97
0.38,0.92,1.17,-58.52,-52.07,-60.67
