ax,ay,az,gx,gy,gz
0.29,-0.31,1.09,10.12,-32.1,-10.2
0.2,-0.35,1.08,8.17,-27.87,-15.34
0.1,-0.36,1.06,7.6,-23.24,-20.27
0.0,-0.35,1.05,8.44,-19.37,-24.74
0.0,-0.35,1.05,8.44,-19.37,-24.74
-0.07,-0.32,1.05,10.45,-17.04,-28.6
-0.11,-0.27,1.04,13.28,-16.6,-31.81
-0.12,-0.23,1.05,16.46,-17.96,-34.47
-0.1,-0.19,1.05,19.38,-20.72,-36.62
-0.07,-0.16,1.06,21.51,-24.33,-38.29
-0.07,-0.16,1.06,21.51,-24.33,-38.29
-0.04,-0.16,1.05,22.44,-28.33,-39.47
-0.01,-0.19,1.04,22.06,-32.23,-40.33
0.01,-0.22,1.03,20.64,-35.63,-41.09
0.02,-0.25,1.03,18.74,-38.18,-41.97
0.01,-0.28,1.02,16.71,-39.66,-43.18
0.01,-0.28,1.02,16.71,-39.66,-43.18
0.01,-0.29,1.03,14.66,-39.99,-44.86
-0.01,-0.3,1.04,12.64,-39.08,-47.14
-0.04,-0.29,1.04,10.76,-37.03,-50.12
-0.07,-0.3,1.03,9.06,-34.11,-53.74
-0.08,-0.3,1.02,7.66,-30.77,-57.63
-0.08,-0.3,1.02,7.66,-30.77,-57.63
-0.1,-0.29,1.01,6.58,-27.36,-61.43
-0.11,-0.29,1.01,5.82,-24.08,-64.93
-0.11,-0.29,1.01,5.38,-21.19,-68.04
-0.12,-0.28,1.01,5.3,-18.77,-70.63
-0.15,-0.27,1.01,5.54,-17.07,-72.65
-0.15,-0.27,1.01,5.54,-17.07,-72.65
-0.17,-0.26,1.01,5.8,-16.34,-74.2
-0.19,-0.24,1.02,5.77,-16.72,-75.4
-0.21,-0.22,1.03,5.32,-18.04,-76.44
-0.22,-0.19,1.03,4.43,-19.96,-77.57
-0.21,-0.17,1.03,3.13,-22.18,-78.91
-0.21,-0.17,1.03,3.13,-22.18,-78.91
-0.2,-0.15,1.04,1.31,-24.46,-80.36
-0.17,-0.13,1.04,-1.13,-26.44,-81.77
-0.15,-0.12,1.04,-4.01,-27.64,-83.21
-0.14,-0.11,1.03,-7.01,-27.77,-84.72
-0.15,-0.11,1.01,-9.96,-26.86,-86.18
-0.15,-0.11,1.01,-9.96,-26.86,-86.18
-0.17,-0.11,0.99,-12.69,-25.29,-87.63
-0.19,-0.11,0.98,-14.95,-23.42,-89.14
-0.2,-0.11,0.97,-16.56,-21.42,-90.59
-0.22,-0.1,0.95,-17.54,-19.55,-91.92
-0.23,-0.09,0.94,-18.11,-17.93,-93.15
-0.23,-0.09,0.94,-18.11,-17.93,-93.15
-0.23,-0.08,0.93,-18.33,-16.71,-94.25
-0.23,-0.07,0.91,-18.3,-15.94,-95.1
-0.21,-0.05,0.9,-18.13,-15.69,-95.59
-0.19,-0.01,0.89,-17.93,-15.84,-95.65
-0.18,0.03,0.9,-17.84,-16.15,-95.31
-0.18,0.03,0.9,-17.84,-16.15,-95.31
-0.17,0.06,0.91,-18.07,-16.39,-94.67
-0.16,0.09,0.92,-19.02,-16.44,-93.84
-0.15,0.11,0.91,-21.04,-16.29,-92.91
-0.14,0.11,0.91,-24.03,-15.83,-91.94
-0.14,0.1,0.9,-27.69,-15.03,-90.97
-0.14,0.1,0.9,-27.69,-15.03,-90.97
-0.13,0.08,0.87,-31.69,-13.85,-90.02
-0.12,0.05,0.84,-35.63,-12.37,-88.99
-0.11,0.02,0.82,-39.03,-10.76,-87.65
-0.11,-0.0,0.8,-41.4,-9.05,-85.99
-0.12,-0.01,0.79,-42.43,-7.11,-84.09
-0.12,-0.01,0.79,-42.43,-7.11,-84.09
-0.13,0.01,0.78,-42.03,-5.13,-81.95
-0.15,0.03,0.78,-40.44,-3.39,-79.46
-0.18,0.06,0.8,-38.16,-2.02,-76.58
-0.2,0.08,0.83,-35.75,-1.1,-73.49
-0.22,0.1,0.85,-33.62,-0.54,-70.55
-0.22,0.1,0.85,-33.62,-0.54,-70.55
-0.22,0.12,0.86,-31.83,-0.21,-67.95
-0.22,0.14,0.87,-30.4,0.0,-65.57
-0.21,0.16,0.88,-29.47,0.13,-63.36
-0.2,0.18,0.88,-29.27,0.07,-61.34
-0.2,0.19,0.87,-29.89,-0.33,-59.44
-0.2,0.19,0.87,-29.89,-0.33,-59.44
-0.2,0.18,0.85,-31.19,-1.14,-57.53
-0.18,0.18,0.84,-32.94,-2.21,-55.51
-0.16,0.18,0.84,-34.81,-3.32,-53.42
-0.14,0.17,0.85,-36.62,-4.21,-51.29
-0.14,0.15,0.85,-38.27,-4.83,-49.17
-0.14,0.15,0.85,-38.27,-4.83,-49.17
-0.14,0.14,0.84,-39.61,-5.22,-47.15
-0.12,0.13,0.84,-40.33,-5.38,-45.44
-0.11,0.16,0.84,-40.37,-5.1,-43.5
-0.08,0.2,0.84,-40.49,-4.89,-41.67
-0.04,0.19,0.83,-40.58,-4.89,-40.46
-0.04,0.19,0.83,-40.58,-4.89,-40.46
0.0,0.19,0.83,-40.06,-4.73,-39.24
0.01,0.21,0.84,-39.06,-4.51,-37.25
0.0,0.23,0.86,-37.74,-4.32,-34.64
0.01,0.25,0.88,-36.55,-4.16,-32.03
0.03,0.24,0.91,-35.53,-4.0,-29.29
0.03,0.24,0.91,-35.53,-4.0,-29.29
0.04,0.22,0.93,-34.5,-3.41,-26.26
0.05,0.21,0.96,-33.06,-1.72,-23.07
0.05,0.19,0.96,-30.95,1.33,-20.09
0.04,0.19,0.97,-28.12,5.6,-17.58
0.0,0.19,0.95,-24.61,10.55,-15.41
0.0,0.19,0.95,-24.61,10.55,-15.41
-0.03,0.19,0.93,-20.66,15.5,-13.28
-0.06,0.2,0.91,-16.43,19.85,-10.92
-0.08,0.23,0.89,-12.01,23.11,-8.24
-0.08,0.27,0.88,-7.46,25.17,-5.47
-0.05,0.31,0.89,-2.96,26.12,-2.88
-0.05,0.31,0.89,-2.96,26.12,-2.88
-0.0,0.34,0.9,1.24,26.26,-0.36
0.03,0.37,0.93,4.75,25.86,2.34
0.03,0.39,0.95,7.29,25.18,5.43
0.01,0.4,0.97,8.51,24.23,8.89
0.01,0.4,0.97,8.24,22.77,12.44
-0.01,0.39,0.98,8.24,22.77,12.44
-0.02,0.37,0.98,6.67,20.71,15.82
-0.0,0.34,1.0,4.33,18.56,18.74
0.04,0.32,1.01,1.57,17.34,20.73
0.09,0.28,1.0,-1.5,17.62,21.7
0.09,0.28,1.0,-1.5,17.62,21.7
0.13,0.24,0.97,-4.69,19.27,22.15
0.13,0.18,0.94,-7.68,21.78,22.56
0.11,0.13,0.91,-10.01,24.57,23.03
0.08,0.09,0.89,-11.23,27.29,23.32
0.06,0.07,0.87,-11.03,29.61,23.29
0.06,0.07,0.87,-11.03,29.61,23.29
0.03,0.08,0.88,-9.32,31.17,22.99
0.02,0.11,0.9,-6.49,31.71,22.49
0.02,0.14,0.93,-3.24,31.04,21.97
0.02,0.16,0.96,-0.45,29.03,21.67
0.03,0.16,0.98,1.41,25.79,21.79
0.03,0.16,0.98,1.41,25.79,21.79
0.05,0.16,1.0,2.15,21.64,22.37
0.07,0.14,1.01,1.99,16.97,23.16
0.08,0.11,1.01,1.21,12.12,23.98
0.09,0.09,1.01,0.05,7.42,24.72
0.11,0.06,1.01,-1.35,3.05,25.29
0.11,0.06,1.01,-1.35,3.05,25.29
0.13,0.04,1.01,-2.92,-0.83,25.4
0.17,0.03,1.02,-4.71,-3.93,24.83
0.21,0.03,1.03,-6.69,-5.83,23.63
0.25,-0.0,1.01,-8.77,-6.43,21.89
0.26,-0.01,0.99,-10.12,-5.8,20.04
0.26,-0.01,0.99,-10.12,-5.8,20.04
0.23,-0.03,0.97,-10.76,-4.27,18.23
0.2,-0.05,0.97,-10.63,-2.76,16.64
0.16,-0.03,0.97,-9.87,-1.3,15.79
0.14,-0.06,0.96,-8.81,-0.71,15.46
0.14,-0.05,0.99,-6.68,-0.72,15.13
0.14,-0.05,0.99,-6.68,-0.72,15.13
0.14,-0.02,1.04,-4.84,-1.16,14.36
0.15,-0.03,1.01,-3.62,-2.62,13.66
0.15,-0.06,0.98,-1.28,-4.09,13.94
0.13,-0.07,1.01,2.34,-5.53,14.59
0.12,-0.03,1.04,6.15,-7.41,14.91
0.12,-0.03,1.04,6.15,-7.41,14.91
0.12,0.01,1.05,9.22,-9.57,14.69
0.13,0.03,1.06,11.25,-11.77,14.03
0.16,0.05,1.06,11.96,-13.79,12.96
0.19,0.06,1.05,11.28,-15.2,11.81
0.2,0.07,1.05,9.41,-15.67,10.78
0.2,0.07,1.05,9.41,-15.67,10.78
0.19,0.07,1.02,6.67,-15.32,9.54
0.18,0.03,0.99,3.69,-14.35,8.03
0.15,-0.02,0.96,1.2,-12.83,6.55
0.13,-0.04,0.95,-0.22,-10.92,5.25
0.11,-0.04,0.95,-0.6,-8.96,3.97
0.11,-0.04,0.95,-0.6,-8.96,3.97
0.11,-0.02,0.95,-0.38,-7.22,2.6
0.1,0.0,0.95,0.05,-5.96,1.26
0.09,0.01,0.96,0.56,-5.23,0.17
0.08,0.02,0.96,1.22,-5.0,-0.64
0.06,0.03,0.97,2.05,-5.23,-1.02
0.06,0.03,0.97,2.05,-5.23,-1.02
0.06,0.03,0.98,2.79,-5.92,-1.24
0.05,0.03,0.99,3.33,-7.01,-1.0
0.03,0.05,1.0,3.5,-8.2,-0.12
0.05,0.03,1.01,3.5,-9.31,0.49
0.06,0.04,1.03,3.64,-9.6,1.21
0.06,0.04,1.03,3.64,-9.6,1.21
0.05,0.05,1.05,3.46,-9.24,1.57
0.07,0.03,1.03,3.2,-8.22,1.03
0.05,0.01,1.03,3.36,-6.19,0.44
0.04,0.01,1.03,3.59,-3.87,-0.07
0.01,0.03,1.02,3.64,-1.78,-0.41
0.01,0.03,1.02,3.64,-1.78,-0.41
-0.01,0.03,1.01,3.58,-0.27,-0.9
-0.02,0.04,1.01,3.59,0.61,-1.38
-0.03,0.05,1.01,3.42,0.69,-1.57
-0.02,0.05,1.0,2.8,-0.18,-1.49
-0.01,0.04,0.99,1.89,-1.79,-1.11
-0.01,0.04,0.99,1.89,-1.79,-1.11
-0.0,0.03,0.98,0.92,-3.85,-0.42
0.01,0.01,0.98,-0.02,-6.19,0.41
0.03,0.01,0.98,-0.8,-8.54,1.26
0.03,0.0,0.98,-1.34,-10.57,2.04
0.04,-0.0,0.98,-1.76,-12.21,2.6
0.04,-0.0,0.98,-1.76,-12.21,2.6
0.04,-0.0,0.98,-2.11,-13.56,2.9
0.03,-0.0,0.97,-2.3,-14.7,3.06
0.04,0.0,0.99,-2.24,-15.52,3.1
0.05,0.02,1.01,-2.09,-15.62,3.08
0.05,0.04,1.02,-2.22,-14.88,2.92
0.05,0.04,1.02,-2.22,-14.88,2.92
0.04,0.03,1.02,-2.96,-13.46,2.41
0.02,0.01,1.01,-4.29,-11.75,1.56
0.0,-0.03,0.99,-5.82,-10.12,0.49
-0.02,-0.06,0.98,-7.12,-8.77,-0.67
-0.03,-0.07,0.97,-7.88,-8.03,-1.83
-0.03,-0.07,0.97,-7.88,-8.03,-1.83
-0.02,-0.07,0.97,-8.11,-7.99,-2.94
-0.02,-0.07,0.96,-8.0,-8.67,-3.93
-0.01,-0.06,0.95,-7.65,-9.95,-4.84
0.01,-0.06,0.94,-7.16,-11.53,-5.67
0.03,-0.05,0.94,-6.6,-13.09,-6.41
0.03,-0.05,0.94,-6.6,-13.09,-6.41
0.05,-0.05,0.93,-6.12,-14.36,-7.04
0.06,-0.06,0.93,-5.75,-15.28,-7.47
0.06,-0.06,0.9,-5.47,-15.81,-7.75
0.07,-0.07,0.89,-5.19,-16.03,-7.94
0.07,-0.07,0.89,-4.7,-15.86,-8.09
0.07,-0.07,0.89,-4.7,-15.86,-8.09
0.08,-0.08,0.88,-3.87,-15.09,-8.33
0.08,-0.08,0.89,-2.66,-13.52,-8.78
0.08,-0.08,0.9,-1.17,-11.07,-9.51
0.05,-0.08,0.9,0.49,-7.96,-10.47
0.02,-0.08,0.9,2.28,-4.62,-11.58
0.02,-0.08,0.9,2.28,-4.62,-11.58
-0.01,-0.07,0.89,4.22,-1.36,-12.76
-0.02,-0.05,0.9,6.13,1.45,-13.86
-0.03,-0.01,0.92,7.62,3.67,-14.7
-0.05,0.03,0.93,8.36,5.23,-15.28
-0.06,0.05,0.95,8.22,6.21,-15.73
-0.06,0.05,0.95,8.22,6.21,-15.73
-0.08,0.06,0.98,7.16,6.72,-16.05
-0.11,0.08,1.01,5.26,6.93,-16.09
-0.14,0.11,1.02,2.46,6.87,-15.9
-0.16,0.12,1.04,-1.44,6.46,-15.76
-0.16,0.11,1.06,-6.49,5.75,-15.73
-0.16,0.11,1.06,-6.49,5.75,-15.73
-0.13,0.1,1.07,-12.29,5.2,-15.72
-0.11,0.09,1.08,-18.14,5.56,-15.66
-0.11,0.09,1.08,-23.55,7.3,-15.42
-0.14,0.09,1.07,-28.33,10.02,-14.8
-0.19,0.09,1.06,-32.38,13.05,-13.56
-0.19,0.09,1.06,-32.38,13.05,-13.56
-0.24,0.1,1.03,-35.47,15.82,-11.57
-0.27,0.12,1.01,-37.22,18.01,-8.68
-0.29,0.16,0.97,-37.33,19.32,-4.87
-0.3,0.22,0.91,-35.81,19.55,-0.16
-0.29,0.3,0.83,-33.06,18.57,5.09
-0.29,0.3,0.83,-33.06,18.57,5.09
-0.23,0.38,0.72,-29.39,16.65,10.11
-0.11,0.46,0.59,-24.74,14.39,14.47
0.04,0.54,0.47,-18.81,12.31,18.08
0.19,0.64,0.37,-11.42,10.71,21.28
0.33,0.74,0.29,-2.58,10.1,24.49
0.33,0.74,0.29,-2.58,10.1,24.49
0.43,0.83,0.27,7.35,11.32,28.23
0.49,0.89,0.22,17.74,15.11,32.67
0.5,0.95,0.2,28.04,21.08,37.76
0.49,1.01,0.21,37.73,29.44,43.42
0.45,1.08,0.25,46.16,40.99,49.87
0.45,1.08,0.25,46.16,40.99,49.87
0.36,1.13,0.36,52.66,55.25,56.97
0.3,1.18,0.48,56.16,69.97,64.54
0.25,1.18,0.58,56.25,81.96,73.08
0.26,1.14,0.67,53.45,90.52,82.25
0.32,1.09,0.83,49.07,96.55,91.67
0.32,1.09,0.83,49.07,96.55,91.67
0.39,1.01,1.03,43.63,100.76,101.35
0.41,0.9,1.2,37.12,103.9,111.07
0.41,0.76,1.3,30.08,106.11,119.95
0.39,0.58,1.36,23.43,107.27,127.27
0.36,0.41,1.41,17.93,107.6,133.07
0.36,0.41,1.41,17.93,107.6,133.07
0.31,0.26,1.47,13.88,106.94,137.72
0.25,0.14,1.52,11.08,105.23,141.35
0.17,0.03,1.6,9.2,102.55,143.67
0.05,-0.09,1.68,8.03,98.74,144.52
-0.08,-0.24,1.74,7.42,93.63,143.87
-0.08,-0.24,1.74,7.42,93.63,143.87
-0.17,-0.4,1.76,7.36,86.85,141.71
-0.16,-0.55,1.75,7.98,78.66,137.75
-0.05,-0.7,1.74,9.38,70.38,131.91
0.06,-0.78,1.77,11.08,62.84,125.58
0.09,-0.78,1.76,11.89,56.25,119.71
0.09,-0.78,1.76,11.89,56.25,119.71
0.05,-0.79,1.7,11.16,50.63,113.36
-0.0,-0.84,1.62,9.11,45.71,105.33
-0.04,-0.92,1.51,6.28,40.57,95.91
-0.08,-0.98,1.43,3.31,34.36,86.55
-0.13,-1.02,1.39,0.8,26.73,78.13
-0.13,-1.02,1.39,0.8,26.73,78.13
-0.19,-1.02,1.37,-0.92,17.85,70.34
-0.26,-1.0,1.38,-1.56,8.49,62.1
-0.32,-0.95,1.39,-0.86,-0.42,52.64
-0.37,-0.88,1.4,1.08,-8.4,42.11
-0.42,-0.79,1.4,3.71,-15.19,31.08
-0.42,-0.79,1.4,3.71,-15.19,31.08
-0.46,-0.69,1.39,6.46,-20.88,20.02
-0.49,-0.61,1.36,8.95,-25.76,9.29
-0.51,-0.53,1.32,10.9,-30.24,-0.68
-0.51,-0.47,1.28,12.17,-34.57,-9.6
-0.5,-0.42,1.22,12.81,-38.8,-17.6
-0.5,-0.42,1.22,12.81,-38.8,-17.6
-0.48,-0.4,1.15,13.11,-42.98,-24.93
-0.43,-0.4,1.09,13.5,-47.03,-31.5
-0.38,-0.38,1.03,14.43,-50.8,-37.01
-0.36,-0.36,0.99,15.94,-54.08,-41.39
-0.34,-0.34,0.95,17.91,-56.88,-44.95
-0.34,-0.34,0.95,17.91,-56.88,-44.95
-0.33,-0.32,0.92,20.12,-59.23,-48.01
-0.31,-0.29,0.89,22.45,-61.22,-50.7
-0.3,-0.25,0.88,24.81,-62.84,-53.1
-0.29,-0.18,0.88,26.94,-64.05,-55.35
-0.25,-0.12,0.9,28.33,-64.66,-57.51
-0.25,-0.12,0.9,28.33,-64.66,-57.51
-0.22,-0.05,0.93,28.33,-64.31,-59.57
-0.2,-0.01,0.97,26.53,-62.67,-61.53
-0.2,0.01,0.99,22.7,-59.64,-63.48
-0.23,-0.01,0.99,16.95,-55.62,-65.42
-0.26,-0.07,0.95,9.97,-51.22,-67.55
-0.26,-0.07,0.95,9.97,-51.22,-67.55
-0.26,-0.14,0.91,2.82,-46.84,-69.74
-0.24,-0.19,0.89,-3.5,-42.51,-71.74
-0.21,-0.2,0.87,-8.35,-38.12,-73.4
-0.2,-0.2,0.87,-11.55,-33.59,-74.72
-0.22,-0.19,0.87,-13.37,-29.06,-75.82
-0.22,-0.19,0.87,-13.37,-29.06,-75.82
-0.24,-0.18,0.86,-14.17,-24.8,-76.9
-0.24,-0.17,0.85,-14.15,-21.06,-77.82
-0.23,-0.13,0.85,-13.62,-17.91,-78.44
-0.2,-0.1,0.86,-13.18,-15.14,-78.85
-0.16,-0.07,0.88,-13.34,-12.24,-79.14
-0.16,-0.07,0.88,-13.34,-12.24,-79.14
-0.16,-0.04,0.92,-14.23,-8.71,-79.38
-0.19,-0.01,0.94,-15.85,-3.95,-79.8
-0.24,0.01,0.92,-18.3,1.92,-80.68
-0.26,0.01,0.88,-21.57,8.39,-81.96
-0.28,-0.0,0.83,-25.28,14.78,-83.16
-0.28,-0.0,0.83,-25.28,14.78,-83.16
-0.27,-0.02,0.8,-28.6,20.61,-83.57
-0.28,-0.03,0.76,-30.88,25.56,-82.5
-0.28,-0.04,0.72,-31.75,29.45,-79.64
-0.28,-0.04,0.7,-31.19,32.28,-75.08
-0.27,-0.04,0.69,-29.14,34.71,-69.53
-0.27,-0.04,0.69,-29.14,34.71,-69.53
-0.24,-0.05,0.68,-25.61,37.6,-63.85
-0.21,-0.07,0.68,-20.55,41.41,-58.44
-0.22,-0.03,0.68,-13.74,46.1,-53.29
-0.31,0.06,0.73,-5.33,51.26,-48.63
-0.41,0.18,0.79,3.52,56.05,-44.92
-0.41,0.18,0.79,3.52,56.05,-44.92
-0.49,0.3,0.85,10.94,59.51,-42.26
-0.51,0.4,0.9,15.34,60.64,-40.48
-0.5,0.47,0.93,15.85,58.97,-39.18
-0.45,0.49,0.94,12.44,54.91,-37.91
-0.37,0.46,0.95,5.58,49.51,-36.52
-0.37,0.46,0.95,5.58,49.51,-36.52
-0.28,0.39,0.94,-3.79,44.27,-35.2
-0.2,0.3,0.9,-14.31,40.28,-34.07
-0.15,0.22,0.86,-24.37,37.96,-32.8
-0.13,0.13,0.83,-32.7,37.42,-31.32
-0.13,0.04,0.79,-38.53,38.45,-29.74
-0.13,0.04,0.79,-38.53,38.45,-29.74
-0.15,-0.02,0.77,-41.2,40.54,-27.99
-0.2,-0.05,0.76,-40.31,43.05,-25.82
-0.27,-0.04,0.78,-35.85,45.52,-23.36
-0.36,-0.0,0.82,-28.34,47.42,-21.03
-0.44,0.09,0.89,-19.07,48.2,-19.21
-0.44,0.09,0.89,-19.07,48.2,-19.21
-0.51,0.23,0.97,-9.84,47.06,-17.9
-0.55,0.37,1.05,-2.69,43.17,-16.9
-0.52,0.47,1.11,0.53,36.51,-16.33
-0.41,0.48,1.14,-0.68,28.07,-16.26
-0.28,0.44,1.14,-5.56,20.06,-16.41
-0.28,0.44,1.14,-5.56,20.06,-16.41
-0.18,0.35,1.09,-13.41,13.89,-16.66
-0.15,0.23,1.01,-22.22,9.98,-16.85
-0.14,0.11,0.95,-29.8,8.43,-16.99
-0.18,0.04,0.92,-35.79,8.56,-16.45
-0.2,-0.04,0.89,-39.5,9.52,-15.48
-0.2,-0.04,0.89,-39.5,9.52,-15.48
-0.17,-0.1,0.87,-40.25,11.74,-15.07
-0.14,-0.13,0.86,-38.39,14.78,-14.83
-0.14,-0.14,0.84,-33.72,18.37,-13.3
-0.19,-0.13,0.83,-26.16,22.38,-10.58
-0.22,-0.1,0.85,-16.2,26.38,-7.94
-0.22,-0.1,0.85,-16.2,26.38,-7.94
-0.28,-0.03,0.89,-4.96,29.83,-5.29
-0.38,0.09,0.94,6.29,31.94,-2.33
-0.44,0.22,0.99,15.87,31.81,0.17
-0.43,0.32,1.06,22.06,29.06,1.46
-0.37,0.36,1.11,23.67,24.23,1.83
-0.37,0.36,1.11,23.67,24.23,1.83
-0.31,0.35,1.12,20.74,18.45,2.06
-0.25,0.31,1.11,14.27,12.85,2.21
-0.18,0.24,1.1,5.31,8.58,1.9
-0.15,0.19,1.09,-5.83,6.57,1.34
-0.16,0.1,1.03,-18.62,6.13,0.26
-0.16,0.1,1.03,-18.62,6.13,0.26
-0.12,-0.06,0.93,-30.69,6.81,-2.15
-0.09,-0.21,0.84,-39.39,8.97,-4.37
-0.11,-0.3,0.79,-43.62,11.97,-4.79
-0.14,-0.31,0.78,-43.3,15.21,-3.98
-0.15,-0.29,0.77,-38.79,18.57,-2.67
-0.15,-0.29,0.77,-38.79,18.57,-2.67
-0.15,-0.24,0.8,-30.83,21.97,-1.09
-0.14,-0.2,0.84,-20.71,25.47,0.62
-0.11,-0.14,0.88,-9.78,29.27,2.51
-0.11,-0.09,0.92,0.76,33.43,4.7
-0.11,-0.09,0.92,10.18,37.95,7.14
-0.1,-0.03,0.95,10.18,37.95,7.14
-0.11,0.01,0.99,17.94,43.26,9.53
-0.12,0.03,0.99,23.86,49.85,11.43
-0.14,0.04,0.97,28.17,57.78,12.63
-0.18,0.04,0.96,31.46,66.52,13.49
-0.18,0.04,0.96,31.46,66.52,13.49
-0.24,0.06,0.96,34.02,75.6,14.01
-0.31,0.09,0.97,35.77,84.65,13.83
-0.36,0.12,0.96,36.51,93.64,12.44
-0.38,0.13,0.93,36.33,102.45,9.98
-0.4,0.14,0.93,35.51,110.5,7.07
-0.4,0.14,0.93,35.51,110.5,7.07
-0.43,0.17,0.93,34.24,117.44,4.07
-0.46,0.19,0.94,32.53,123.0,1.15
-0.48,0.2,0.95,30.3,126.92,-1.57
-0.5,0.2,0.96,27.5,129.1,-3.7
-0.51,0.19,0.96,24.21,129.55,-5.07
-0.51,0.19,0.96,24.21,129.55,-5.07
-0.53,0.19,0.94,20.69,128.2,-5.5
-0.54,0.18,0.94,17.15,125.18,-5.06
-0.55,0.17,0.95,13.66,120.99,-4.15
-0.55,0.15,0.94,10.19,116.16,-3.18
-0.55,0.13,0.93,6.77,110.99,-2.39
-0.55,0.13,0.93,6.77,110.99,-2.39
-0.54,0.11,0.93,3.53,105.78,-1.92
-0.53,0.1,0.93,0.47,100.85,-1.87
-0.52,0.09,0.93,-2.51,96.73,-2.35
-0.49,0.07,0.92,-5.44,93.84,-3.31
-0.47,0.06,0.91,-8.29,92.12,-4.31
-0.47,0.06,0.91,-8.29,92.12,-4.31
-0.47,0.05,0.9,-10.95,91.42,-5.05
-0.49,0.03,0.89,-13.39,91.66,-5.62
-0.52,0.02,0.88,-15.64,92.65,-6.22
-0.54,-0.01,0.85,-17.61,93.87,-6.79
-0.57,-0.02,0.83,-18.4,94.86,-6.94
-0.57,-0.02,0.83,-18.4,94.86,-6.94
-0.6,-0.03,0.83,-18.12,95.29,-7.05
-0.63,-0.02,0.83,-17.07,94.81,-7.24
-0.66,0.01,0.84,-15.53,93.48,-7.33
-0.68,0.01,0.83,-13.95,91.36,-7.47
-0.69,0.04,0.82,-12.06,88.37,-7.58
-0.69,0.04,0.82,-12.06,88.37,-7.58
-0.68,0.05,0.83,-10.16,84.49,-8.0
-0.67,0.05,0.82,-8.26,79.89,-8.2
-0.69,0.08,0.82,-6.24,74.59,-7.49
-0.71,0.12,0.85,-4.5,68.58,-6.3
-0.73,0.15,0.87,-3.7,61.81,-5.21
-0.73,0.15,0.87,-3.7,61.81,-5.21
-0.73,0.15,0.87,-4.27,54.38,-4.3
-0.74,0.13,0.86,-6.11,46.62,-3.65
-0.73,0.09,0.84,-8.47,39.0,-3.44
-0.71,0.08,0.83,-10.74,31.76,-3.4
-0.7,0.09,0.85,-12.87,24.98,-3.24
-0.7,0.09,0.85,-12.87,24.98,-3.24
-0.71,0.1,0.86,-15.35,18.8,-3.03
-0.71,0.07,0.84,-18.33,13.11,-2.88
-0.7,0.03,0.82,-21.29,7.73,-2.7
-0.69,0.0,0.81,-23.63,2.8,-2.41
-0.67,-0.03,0.8,-25.22,-1.24,-2.31
-0.67,-0.03,0.8,-25.22,-1.24,-2.31
-0.65,-0.05,0.79,-26.15,-4.29,-2.62
-0.62,-0.06,0.77,-26.24,-6.33,-3.22
-0.6,-0.06,0.76,-25.37,-7.37,-3.85
-0.58,-0.05,0.77,-23.75,-7.73,-4.32
-0.58,-0.03,0.78,-21.79,-7.7,-4.52
-0.58,-0.03,0.78,-21.79,-7.7,-4.52
-0.58,-0.02,0.78,-19.78,-7.45,-4.39
-0.57,-0.01,0.79,-17.9,-6.92,-3.95
-0.56,-0.02,0.78,-16.19,-5.72,-3.44
-0.55,-0.03,0.77,-14.69,-3.71,-3.03
-0.54,-0.04,0.76,-13.02,-0.85,-2.54
-0.54,-0.04,0.76,-13.02,-0.85,-2.54
-0.55,-0.06,0.75,-10.89,2.58,-1.88
-0.56,-0.06,0.75,-8.24,6.16,-1.2
-0.58,-0.05,0.75,-5.13,9.51,-0.38
-0.6,-0.03,0.77,-1.85,12.34,0.62
-0.62,-0.02,0.78,1.25,14.47,1.59
-0.62,-0.02,0.78,1.25,14.47,1.59
-0.64,0.01,0.78,4.1,15.8,2.53
-0.66,0.03,0.79,6.64,16.44,3.4
-0.67,0.06,0.81,8.66,16.67,3.98
-0.68,0.08,0.83,9.87,16.89,4.06
-0.69,0.1,0.84,10.12,17.2,3.65
-0.69,0.1,0.84,10.12,17.2,3.65
-0.7,0.11,0.86,9.44,17.71,2.76
-0.71,0.11,0.87,7.77,18.31,1.42
-0.72,0.11,0.88,5.19,18.76,-0.27
-0.72,0.1,0.88,1.91,18.97,-2.12
-0.73,0.09,0.87,-1.79,18.8,-3.96
