ax,ay,az,gx,gy,gz
-0.67,-0.16,0.58,29.49,-3.71,22.82
-0.67,-0.16,0.58,29.49,-3.71,22.82
-0.68,-0.15,0.57,33.21,-3.22,25.3
-0.69,-0.13,0.58,37.85,-2.56,27.72
-0.7,-0.1,0.6,43.05,-1.87,30.08
-0.7,-0.07,0.62,48.32,-1.29,32.29
-0.71,-0.03,0.64,53.22,-1.03,34.27
-0.71,-0.03,0.64,53.22,-1.03,34.27
-0.72,-0.0,0.66,57.41,-1.27,35.99
-0.73,0.02,0.66,60.81,-2.14,37.51
-0.74,0.04,0.67,63.35,-3.68,38.88
-0.76,0.05,0.69,64.94,-5.81,39.91
-0.77,0.06,0.7,65.41,-8.33,40.37
-0.77,0.06,0.7,65.41,-8.33,40.37
-0.77,0.07,0.69,64.84,-11.04,40.16
-0.75,0.08,0.66,63.66,-13.95,39.36
-0.71,0.08,0.65,62.29,-16.94,38.37
-0.67,0.07,0.66,60.76,-19.68,37.76
-0.65,0.06,0.66,59.13,-21.92,37.9
-0.65,0.06,0.66,59.13,-21.92,37.9
-0.64,0.05,0.64,57.74,-23.69,38.79
-0.66,0.04,0.61,56.98,-25.12,40.23
-0.67,0.02,0.6,57.43,-26.28,41.96
-0.68,0.01,0.6,59.31,-27.32,43.76
-0.69,0.02,0.61,62.47,-28.27,45.48
-0.69,0.02,0.61,62.47,-28.27,45.48
-0.69,0.04,0.62,66.6,-29.15,46.99
-0.7,0.07,0.63,71.32,-29.89,48.17
-0.71,0.11,0.64,76.22,-30.63,48.86
-0.72,0.15,0.65,80.88,-31.34,48.89
-0.72,0.19,0.66,85.09,-32.05,48.27
-0.72,0.19,0.66,85.09,-32.05,48.27
-0.71,0.23,0.67,88.57,-32.79,47.2
-0.71,0.27,0.69,91.01,-33.66,45.87
-0.7,0.3,0.71,92.22,-34.79,44.29
-0.7,0.32,0.75,92.06,-36.26,42.49
-0.7,0.34,0.77,90.19,-38.03,40.56
-0.7,0.34,0.77,90.19,-38.03,40.56
-0.68,0.34,0.76,86.63,-40.19,38.56
-0.67,0.31,0.75,81.95,-42.55,36.63
-0.67,0.27,0.75,76.86,-44.94,34.74
-0.67,0.23,0.73,71.81,-47.25,32.72
-0.65,0.21,0.7,67.3,-49.5,30.51
-0.65,0.21,0.7,67.3,-49.5,30.51
-0.63,0.19,0.68,63.78,-51.59,28.15
-0.61,0.19,0.69,61.53,-53.21,25.56
-0.58,0.2,0.69,60.39,-54.0,22.73
-0.57,0.22,0.69,59.89,-54.12,19.81
-0.56,0.25,0.68,59.54,-53.85,16.81
-0.56,0.25,0.68,59.54,-53.85,16.81
-0.55,0.27,0.67,59.13,-53.35,13.65
-0.53,0.3,0.68,58.63,-52.59,10.58
-0.51,0.33,0.68,57.87,-51.46,7.76
-0.49,0.35,0.68,56.77,-50.16,5.44
-0.47,0.36,0.69,55.09,-48.59,3.89
-0.47,0.36,0.69,55.09,-48.59,3.89
-0.45,0.36,0.7,52.58,-46.83,3.29
-0.43,0.33,0.69,49.35,-44.68,3.73
-0.44,0.28,0.66,45.93,-41.99,5.22
-0.45,0.23,0.61,43.17,-38.93,7.5
-0.47,0.18,0.58,42.03,-35.56,10.13
-0.47,0.18,0.58,42.03,-35.56,10.13
-0.49,0.16,0.58,43.11,-31.85,12.85
-0.5,0.16,0.58,46.38,-27.85,15.43
-0.52,0.19,0.59,51.49,-23.65,17.67
-0.53,0.23,0.61,57.69,-19.39,19.34
-0.55,0.29,0.64,64.19,-15.28,20.39
-0.55,0.29,0.64,64.19,-15.28,20.39
-0.55,0.35,0.65,70.29,-11.76,21.08
-0.58,0.41,0.67,75.54,-9.06,21.59
-0.59,0.47,0.7,79.52,-7.1,21.86
-0.57,0.5,0.71,81.6,-5.96,21.89
-0.54,0.52,0.7,81.37,-5.5,22.09
-0.54,0.52,0.7,81.37,-5.5,22.09
-0.52,0.5,0.69,79.3,-5.24,22.72
-0.52,0.47,0.68,76.3,-4.95,23.75
-0.53,0.44,0.66,73.15,-4.54,25.04
-0.54,0.42,0.64,70.39,-3.9,26.42
-0.55,0.41,0.63,68.26,-3.04,27.71
-0.55,0.41,0.63,68.26,-3.04,27.71
-0.55,0.41,0.63,66.73,-2.07,28.71
-0.55,0.42,0.63,65.72,-1.04,29.36
-0.54,0.43,0.64,65.12,0.04,29.74
-0.55,0.45,0.65,64.72,1.0,29.87
-0.55,0.47,0.66,64.19,1.76,29.68
-0.55,0.47,0.66,64.19,1.76,29.68
-0.57,0.49,0.68,63.17,2.19,29.23
-0.58,0.5,0.69,61.44,2.2,28.48
-0.58,0.5,0.7,59.07,1.75,27.44
-0.59,0.5,0.71,56.3,0.84,26.2
-0.59,0.5,0.73,53.12,-0.49,24.93
-0.59,0.5,0.73,53.12,-0.49,24.93
-0.59,0.49,0.72,49.48,-2.22,23.66
-0.6,0.47,0.71,45.52,-4.33,22.25
-0.59,0.45,0.7,41.69,-6.73,20.6
-0.58,0.44,0.69,38.33,-9.23,18.83
-0.57,0.44,0.67,35.55,-11.65,17.03
-0.57,0.44,0.67,35.55,-11.65,17.03
-0.55,0.45,0.68,33.26,-13.84,15.21
-0.53,0.45,0.67,31.24,-15.65,13.36
-0.51,0.44,0.67,29.41,-16.87,11.69
-0.5,0.44,0.66,27.87,-17.54,10.39
-0.51,0.44,0.66,26.71,-17.75,9.41
-0.51,0.44,0.66,26.71,-17.75,9.41
-0.53,0.45,0.65,26.05,-17.63,8.71
-0.55,0.46,0.65,25.76,-17.53,8.15
-0.56,0.48,0.65,25.68,-17.67,7.74
-0.56,0.48,0.65,25.71,-18.16,7.47
-0.56,0.49,0.65,25.8,-18.95,7.27
-0.56,0.49,0.65,25.8,-18.95,7.27
-0.56,0.49,0.66,26.05,-19.94,7.11
-0.56,0.49,0.66,26.39,-21.01,6.98
-0.56,0.5,0.66,26.76,-22.14,6.86
-0.56,0.51,0.67,27.13,-23.26,6.69
-0.56,0.53,0.68,27.32,-24.46,6.47
-0.56,0.53,0.68,27.32,-24.46,6.47
-0.57,0.54,0.69,27.11,-25.8,6.22
-0.57,0.55,0.68,26.27,-27.43,5.81
-0.57,0.55,0.67,24.94,-29.29,5.11
-0.55,0.55,0.67,23.33,-31.31,4.16
-0.53,0.55,0.68,21.54,-33.3,3.19
-0.53,0.55,0.68,21.54,-33.3,3.19
-0.52,0.55,0.68,19.55,-35.06,2.32
-0.51,0.54,0.67,17.45,-36.56,1.53
-0.49,0.52,0.65,15.45,-37.78,0.96
-0.48,0.49,0.65,13.81,-38.8,0.82
-0.47,0.47,0.65,12.81,-39.52,1.16
-0.47,0.47,0.65,12.81,-39.52,1.16
-0.46,0.46,0.64,12.62,-40.02,1.9
-0.46,0.46,0.64,13.31,-40.37,2.93
-0.47,0.47,0.63,14.86,-40.64,4.14
-0.46,0.48,0.63,17.12,-40.91,5.44
-0.46,0.48,0.63,19.69,-41.1,6.7
-0.45,0.49,0.63,19.69,-41.1,6.7
-0.43,0.5,0.64,22.28,-41.13,7.79
-0.42,0.5,0.65,24.81,-40.74,8.56
-0.4,0.51,0.66,27.24,-39.78,9.07
-0.4,0.53,0.67,29.54,-38.28,9.49
-0.4,0.53,0.67,31.45,-36.48,9.86
-0.42,0.56,0.69,31.45,-36.48,9.86
-0.44,0.58,0.69,32.69,-34.76,10.15
-0.45,0.6,0.7,33.08,-33.37,10.32
-0.46,0.6,0.7,32.6,-32.5,10.32
-0.47,0.6,0.7,31.43,-32.24,10.12
-0.47,0.6,0.7,31.43,-32.24,10.12
-0.48,0.6,0.7,29.78,-32.74,9.65
-0.47,0.6,0.7,27.93,-33.95,8.98
-0.46,0.61,0.7,25.91,-35.78,8.21
-0.45,0.61,0.7,23.67,-38.15,7.4
-0.43,0.6,0.71,21.14,-40.73,6.52
-0.43,0.6,0.71,21.14,-40.73,6.52
-0.4,0.59,0.71,18.39,-43.14,5.57
-0.37,0.58,0.71,15.52,-44.83,4.53
-0.34,0.57,0.71,12.64,-45.38,3.42
-0.33,0.56,0.7,9.88,-44.6,2.1
-0.33,0.55,0.7,7.41,-42.47,0.58
-0.33,0.55,0.7,7.41,-42.47,0.58
-0.33,0.56,0.7,5.26,-39.42,-0.86
-0.34,0.57,0.7,3.33,-35.85,-2.1
-0.36,0.58,0.7,1.48,-32.08,-3.08
-0.37,0.56,0.69,-0.35,-28.51,-3.82
-0.37,0.55,0.69,-2.04,-25.36,-4.23
-0.37,0.55,0.69,-2.04,-25.36,-4.23
-0.37,0.53,0.69,-3.33,-22.62,-4.32
-0.37,0.53,0.69,-4.02,-20.2,-4.15
-0.38,0.53,0.7,-4.14,-18.05,-3.89
-0.38,0.55,0.7,-3.93,-16.08,-3.8
-0.38,0.57,0.71,-3.72,-14.03,-3.95
-0.38,0.57,0.71,-3.72,-14.03,-3.95
-0.38,0.59,0.72,-3.81,-11.7,-4.44
-0.38,0.61,0.73,-4.56,-9.13,-5.43
-0.38,0.62,0.73,-6.08,-6.37,-6.88
-0.38,0.64,0.74,-8.43,-3.54,-8.65
-0.39,0.64,0.75,-11.63,-0.89,-10.52
-0.39,0.64,0.75,-11.63,-0.89,-10.52
-0.41,0.64,0.76,-15.58,1.28,-12.23
-0.43,0.64,0.76,-20.21,2.74,-13.67
-0.45,0.63,0.76,-25.33,3.23,-14.8
-0.46,0.62,0.77,-30.74,2.71,-15.64
-0.47,0.6,0.77,-36.27,1.13,-16.25
-0.47,0.6,0.77,-36.27,1.13,-16.25
-0.45,0.57,0.75,-41.7,-1.22,-16.76
-0.41,0.52,0.72,-46.84,-3.66,-17.41
-0.36,0.45,0.72,-51.19,-5.65,-18.12
-0.32,0.39,0.7,-54.04,-6.46,-18.75
-0.3,0.37,0.67,-54.89,-6.06,-18.98
-0.3,0.37,0.67,-54.89,-6.06,-18.98
-0.31,0.37,0.66,-53.43,-4.71,-18.5
-0.34,0.38,0.68,-49.89,-2.75,-17.23
-0.38,0.4,0.7,-44.96,-0.83,-15.31
-0.42,0.43,0.73,-39.42,0.32,-12.9
-0.45,0.46,0.75,-33.76,0.26,-10.11
-0.45,0.46,0.75,-33.76,0.26,-10.11
-0.47,0.49,0.77,-28.36,-1.09,-7.14
-0.48,0.51,0.79,-23.72,-3.56,-4.35
-0.47,0.53,0.81,-20.11,-6.63,-2.09
-0.46,0.54,0.82,-17.66,-9.69,-0.43
-0.46,0.56,0.83,-16.39,-12.62,0.55
-0.46,0.56,0.83,-16.39,-12.62,0.55
-0.45,0.57,0.84,-16.39,-15.35,0.8
-0.45,0.59,0.84,-17.78,-17.88,0.28
-0.45,0.59,0.85,-20.59,-20.26,-0.91
-0.44,0.59,0.85,-24.78,-22.62,-2.63
-0.44,0.58,0.85,-30.15,-25.15,-4.63
-0.44,0.58,0.85,-30.15,-25.15,-4.63
-0.44,0.57,0.85,-36.48,-28.03,-6.66
-0.44,0.54,0.85,-43.38,-31.34,-8.56
-0.45,0.51,0.84,-50.43,-35.18,-10.28
-0.45,0.48,0.83,-57.21,-39.64,-11.68
-0.44,0.45,0.82,-63.51,-44.57,-12.71
-0.44,0.45,0.82,-63.51,-44.57,-12.71
-0.42,0.43,0.82,-69.25,-49.72,-13.6
-0.39,0.4,0.82,-74.28,-54.6,-14.54
-0.36,0.38,0.81,-78.53,-58.79,-15.53
-0.32,0.36,0.8,-81.84,-62.11,-16.41
-0.3,0.34,0.81,-84.18,-64.41,-17.15
-0.3,0.34,0.81,-84.18,-64.41,-17.15
-0.28,0.32,0.8,-85.65,-65.61,-17.73
-0.27,0.31,0.8,-86.33,-65.96,-18.09
-0.27,0.3,0.8,-86.27,-65.78,-18.16
-0.27,0.28,0.8,-85.57,-65.22,-17.87
-0.27,0.27,0.81,-84.34,-64.41,-17.34
-0.27,0.27,0.81,-84.34,-64.41,-17.34
-0.26,0.25,0.81,-82.6,-63.62,-16.57
-0.27,0.24,0.81,-80.3,-63.0,-15.51
-0.28,0.23,0.81,-77.37,-62.76,-14.15
-0.29,0.24,0.82,-73.85,-63.2,-12.58
-0.3,0.24,0.83,-69.94,-64.44,-11.0
-0.3,0.24,0.83,-69.94,-64.44,-11.0
-0.31,0.25,0.84,-65.78,-66.45,-9.53
-0.3,0.26,0.85,-61.56,-69.19,-8.25
-0.29,0.27,0.86,-57.65,-72.47,-7.22
-0.25,0.29,0.89,-54.36,-75.85,-6.59
-0.19,0.31,0.91,-51.91,-78.46,-6.48
-0.19,0.31,0.91,-51.91,-78.46,-6.48
-0.13,0.31,0.93,-50.51,-79.48,-6.85
-0.09,0.31,0.95,-50.31,-78.61,-7.46
-0.06,0.31,0.95,-51.37,-75.98,-7.96
-0.08,0.29,0.94,-53.45,-71.81,-8.15
-0.11,0.27,0.92,-56.13,-66.68,-8.09
-0.11,0.27,0.92,-56.13,-66.68,-8.09
-0.14,0.23,0.9,-59.0,-61.34,-7.9
-0.17,0.2,0.88,-61.54,-56.39,-7.54
-0.19,0.17,0.88,-63.31,-52.37,-6.95
-0.21,0.14,0.88,-63.99,-49.57,-6.14
-0.23,0.13,0.89,-63.52,-48.19,-5.26
-0.23,0.13,0.89,-63.52,-48.19,-5.26
-0.25,0.13,0.89,-61.92,-48.37,-4.31
-0.27,0.14,0.92,-59.26,-50.28,-3.2
-0.31,0.17,0.95,-55.98,-53.91,-2.09
-0.32,0.21,0.96,-52.67,-59.25,-1.44
-0.28,0.24,0.96,-50.14,-65.76,-1.41
-0.28,0.24,0.96,-50.14,-65.76,-1.41
-0.2,0.26,0.97,-48.92,-72.5,-2.11
-0.1,0.26,1.01,-48.94,-78.21,-3.53
-0.0,0.24,1.02,-50.25,-81.35,-5.63
0.08,0.22,1.0,-52.66,-81.24,-7.91
0.12,0.2,0.98,-55.74,-78.1,-9.6
0.12,0.2,0.98,-55.74,-78.1,-9.6
0.11,0.16,0.98,-59.05,-72.63,-10.29
0.06,0.12,0.96,-62.37,-65.58,-10.1
-0.01,0.07,0.93,-65.11,-57.92,-9.36
-0.08,0.03,0.91,-66.59,-50.86,-8.27
-0.12,-0.0,0.91,-66.46,-45.27,-6.98
-0.12,-0.0,0.91,-66.46,-45.27,-6.98
-0.16,-0.01,0.91,-64.59,-41.56,-5.54
-0.18,0.0,0.92,-61.11,-39.74,-4.2
-0.18,0.02,0.94,-56.38,-39.73,-3.11
-0.17,0.05,0.97,-50.97,-41.25,-2.22
-0.16,0.07,0.99,-45.58,-43.97,-1.49
-0.16,0.07,0.99,-45.58,-43.97,-1.49
-0.13,0.09,0.99,-40.92,-47.34,-1.08
-0.08,0.1,1.0,-37.07,-50.75,-1.22
-0.0,0.11,1.0,-33.92,-53.23,-1.99
0.07,0.11,1.0,-31.51,-54.03,-3.0
0.12,0.12,1.01,-29.78,-52.8,-3.8
0.12,0.12,1.01,-29.78,-52.8,-3.8
0.12,0.11,1.01,-28.63,-49.58,-4.18
0.07,0.11,1.01,-28.05,-45.21,-3.95
0.01,0.1,1.0,-28.09,-40.62,-3.3
-0.04,0.09,0.98,-28.67,-36.59,-2.52
-0.07,0.07,0.98,-29.42,-33.6,-1.86
-0.07,0.07,0.98,-29.42,-33.6,-1.86
-0.09,0.06,0.98,-30.05,-31.92,-1.35
-0.1,0.07,0.98,-30.4,-31.6,-0.91
-0.1,0.08,0.99,-30.48,-32.7,-0.39
-0.11,0.1,1.0,-30.49,-35.15,0.19
-0.12,0.11,0.99,-30.67,-38.84,0.68
-0.12,0.11,0.99,-30.67,-38.84,0.68
-0.08,0.12,0.98,-31.24,-43.3,0.84
-0.01,0.11,0.99,-32.15,-47.65,0.44
0.07,0.1,1.0,-33.34,-50.78,-0.47
0.14,0.08,0.98,-34.71,-52.07,-1.51
0.18,0.06,0.97,-36.06,-51.51,-2.2
0.18,0.06,0.97,-36.06,-51.51,-2.2
0.17,0.04,0.97,-37.12,-49.23,-2.27
0.13,0.02,0.96,-37.7,-45.54,-1.93
0.09,0.01,0.95,-37.68,-41.25,-1.39
0.05,0.01,0.95,-37.1,-36.97,-0.82
0.03,0.01,0.95,-36.04,-33.21,-0.32
0.03,0.01,0.95,-36.04,-33.21,-0.32
0.01,0.0,0.95,-34.63,-30.21,0.06
-0.0,0.01,0.96,-32.91,-28.21,0.33
-0.02,0.02,0.97,-30.93,-27.32,0.68
-0.03,0.04,0.99,-28.86,-27.56,1.19
-0.04,0.06,1.0,-27.02,-28.93,1.81
-0.04,0.06,1.0,-27.02,-28.93,1.81
-0.02,0.07,1.01,-25.82,-31.26,2.39
0.02,0.09,1.02,-25.6,-33.85,2.64
0.07,0.09,1.03,-26.17,-35.91,2.42
0.13,0.07,1.03,-27.43,-36.63,1.76
0.17,0.05,1.01,-29.1,-35.86,1.05
0.17,0.05,1.01,-29.1,-35.86,1.05
0.18,0.04,1.0,-30.83,-33.68,0.71
0.15,0.03,1.0,-32.47,-30.28,0.77
0.11,0.02,0.99,-34.18,-26.24,0.94
0.09,0.01,0.99,-35.96,-22.33,1.07
0.05,0.0,0.99,-37.79,-19.05,1.32
0.05,0.0,0.99,-37.79,-19.05,1.32
0.02,-0.01,1.0,-39.62,-16.9,1.83
-0.02,-0.02,1.01,-41.51,-16.28,2.47
-0.03,-0.02,1.0,-43.55,-17.34,3.03
-0.03,-0.03,1.0,-45.63,-19.92,3.45
-0.01,-0.05,1.0,-47.61,-23.73,3.67
-0.01,-0.05,1.0,-47.61,-23.73,3.67
0.02,-0.05,1.0,-49.61,-28.34,3.73
0.07,-0.05,0.99,-51.78,-32.81,3.5
0.14,-0.07,0.97,-54.04,-36.27,2.81
0.21,-0.1,0.95,-56.0,-38.01,1.75
0.26,-0.15,0.94,-57.42,-37.79,0.7
0.26,-0.15,0.94,-57.42,-37.79,0.7
0.28,-0.19,0.92,-58.09,-35.58,0.03
0.26,-0.22,0.89,-57.66,-31.7,-0.11
0.21,-0.24,0.88,-55.81,-26.92,0.23
0.15,-0.24,0.88,-52.56,-22.13,0.84
0.09,-0.24,0.88,-48.15,-18.08,1.45
0.09,-0.24,0.88,-48.15,-18.08,1.45
0.05,-0.23,0.89,-42.93,-15.36,1.87
0.04,-0.2,0.91,-37.21,-14.15,2.07
0.03,-0.17,0.94,-31.41,-14.28,2.0
0.04,-0.14,0.96,-26.03,-15.66,1.58
0.06,-0.12,0.97,-21.48,-17.95,0.85
0.06,-0.12,0.97,-21.48,-17.95,0.85
0.09,-0.1,0.97,-17.97,-20.7,-0.08
0.14,-0.09,0.97,-15.51,-23.36,-1.06
0.19,-0.08,0.97,-14.07,-25.43,-1.94
0.24,-0.08,0.97,-13.59,-26.47,-2.64
0.28,-0.08,0.97,-14.02,-26.07,-3.13
0.28,-0.08,0.97,-14.02,-26.07,-3.13
0.29,-0.1,0.96,-15.21,-24.2,-3.42
0.29,-0.13,0.95,-16.87,-21.03,-3.58
0.28,-0.16,0.94,-18.55,-16.9,-3.55
0.25,-0.19,0.93,-19.76,-12.19,-3.3
0.22,-0.21,0.94,-20.21,-7.36,-2.9
0.22,-0.21,0.94,-20.21,-7.36,-2.9
0.18,-0.22,0.93,-19.87,-2.87,-2.44
0.15,-0.22,0.94,-18.73,0.85,-1.92
0.12,-0.22,0.95,-16.8,3.57,-1.3
0.09,-0.2,0.96,-14.24,5.16,-0.52
0.07,-0.18,0.98,-11.3,5.65,0.29
0.07,-0.18,0.98,-11.3,5.65,0.29
0.07,-0.15,1.0,-8.34,5.17,0.94
0.08,-0.13,1.02,-5.76,4.03,1.3
0.11,-0.11,1.04,-3.73,2.71,1.42
0.13,-0.1,1.05,-2.35,1.65,1.39
0.14,-0.09,1.05,-1.63,1.1,1.26
0.14,-0.09,1.05,-1.63,1.1,1.26
0.15,-0.08,1.05,-1.6,1.19,1.07
0.14,-0.09,1.05,-2.22,1.77,0.91
0.13,-0.11,1.03,-3.42,2.66,0.87
0.12,-0.13,1.02,-4.96,3.61,0.93
0.11,-0.15,1.0,-6.43,4.48,1.0
0.11,-0.15,1.0,-6.43,4.48,1.0
0.11,-0.18,0.98,-7.5,5.15,0.98
0.1,-0.19,0.96,-7.98,5.56,0.97
0.1,-0.19,0.96,-7.82,5.57,1.03
0.1,-0.19,0.96,-7.09,5.15,1.22
0.1,-0.18,0.97,-6.0,4.29,1.57
0.1,-0.18,0.97,-6.0,4.29,1.57
0.09,-0.17,0.98,-4.75,3.02,2.04
0.08,-0.15,0.98,-3.51,1.43,2.48
0.09,-0.13,0.99,-2.54,-0.35,2.8
0.09,-0.12,1.0,-1.99,-2.29,3.03
0.1,-0.11,1.01,-2.05,-4.31,3.13
0.1,-0.11,1.01,-2.05,-4.31,3.13
0.11,-0.1,1.01,-2.83,-6.27,2.99
0.13,-0.11,1.0,-4.32,-7.97,2.61
0.16,-0.12,0.99,-6.42,-9.25,2.08
0.18,-0.15,0.97,-8.88,-10.0,1.56
0.2,-0.18,0.95,-11.36,-10.05,1.2
0.2,-0.18,0.95,-11.36,-10.05,1.2
0.2,-0.22,0.92,-13.43,-9.42,1.0
0.2,-0.25,0.9,-14.69,-8.23,0.96
0.19,-0.28,0.89,-14.87,-6.62,0.93
0.18,-0.3,0.88,-13.86,-4.79,0.87
0.16,-0.29,0.88,-11.63,-2.92,0.78
0.16,-0.29,0.88,-11.63,-2.92,0.78
0.14,-0.27,0.89,-8.39,-1.19,0.55
0.12,-0.23,0.91,-4.54,0.29,0.08
0.12,-0.19,0.93,-0.69,1.43,-0.67
0.13,-0.16,0.95,2.55,2.26,-1.6
0.14,-0.13,0.97,4.85,2.91,-2.67
0.14,-0.13,0.97,4.85,2.91,-2.67
0.15,-0.12,0.97,6.11,3.58,-3.71
0.16,-0.11,0.98,6.42,4.43,-4.68
0.16,-0.11,0.99,5.95,5.6,-5.51
0.14,-0.12,0.99,4.78,6.96,-6.26
0.11,-0.13,0.99,3.01,8.28,-7.12
0.11,-0.13,0.99,3.01,8.28,-7.12
0.1,-0.14,0.99,0.86,9.33,-8.3
0.09,-0.16,0.98,-1.38,9.97,-9.84
0.1,-0.17,0.97,-3.41,10.1,-11.45
0.11,-0.18,0.97,-5.14,9.81,-12.9
0.13,-0.19,0.97,-6.66,9.41,-14.26
0.13,-0.19,0.97,-6.66,9.41,-14.26
0.14,-0.2,0.97,-7.97,9.21,-15.76
0.15,-0.21,0.95,-8.88,9.38,-17.37
0.14,-0.21,0.94,-9.01,9.95,-18.96
0.12,-0.2,0.96,-8.44,10.74,-20.4
0.11,-0.18,0.96,-7.62,11.57,-21.78
0.11,-0.18,0.96,-7.62,11.57,-21.78
0.1,-0.16,0.97,-6.95,12.31,-23.32
0.11,-0.16,0.98,-6.59,13.08,-25.22
0.13,-0.17,0.98,-6.5,14.09,-27.53
0.14,-0.18,0.98,-6.5,15.4,-29.99
0.16,-0.18,0.98,-6.44,17.0,-32.27
0.16,-0.18,0.98,-6.44,17.0,-32.27
0.16,-0.17,0.98,-6.25,18.74,-34.03
0.15,-0.17,0.97,-5.94,20.2,-35.04
0.12,-0.16,0.97,-5.5,20.9,-35.07
0.08,-0.16,0.98,-5.09,20.5,-34.14
0.05,-0.16,0.98,-4.86,18.74,-32.57
0.05,-0.16,0.98,-4.86,18.74,-32.57
0.03,-0.17,0.97,-4.72,15.68,-30.79
0.04,-0.17,0.98,-4.44,11.88,-29.27
0.06,-0.18,0.99,-3.94,7.86,-28.32
0.09,-0.18,0.99,-3.31,4.25,-28.13
0.09,-0.18,0.99,-2.47,1.45,-28.54
0.13,-0.18,0.99,-2.47,1.45,-28.54
0.15,-0.17,0.99,-1.44,-0.34,-29.14
0.17,-0.16,1.0,-0.47,-1.26,-29.57
0.18,-0.15,1.0,0.19,-1.44,-29.7
0.17,-0.15,1.0,0.42,-1.08,-29.52
0.17,-0.15,1.0,0.26,-0.42,-28.99
0.16,-0.15,0.99,0.26,-0.42,-28.99
0.15,-0.16,0.97,-0.14,0.2,-28.06
0.14,-0.17,0.96,-0.58,0.61,-26.68
0.14,-0.18,0.95,-0.81,0.74,-25.0
0.12,-0.19,0.95,-0.72,0.6,-23.18
0.12,-0.19,0.95,-0.72,0.6,-23.18
0.11,-0.2,0.95,-0.21,0.14,-21.45
0.09,-0.19,0.94,0.75,-0.7,-19.99
0.09,-0.19,0.95,2.03,-1.93,-18.82
0.1,-0.17,0.96,3.38,-3.51,-17.86
0.12,-0.16,0.97,4.41,-5.23,-17.05
0.12,-0.16,0.97,4.41,-5.23,-17.05
0.14,-0.15,0.97,4.91,-6.79,-16.28
0.16,-0.15,0.97,4.79,-7.91,-15.58
0.18,-0.15,0.97,4.14,-8.45,-14.96
0.19,-0.17,0.96,3.16,-8.32,-14.31
0.2,-0.19,0.96,2.03,-7.46,-13.54
0.2,-0.19,0.96,2.03,-7.46,-13.54
0.2,-0.2,0.94,0.96,-6.05,-12.68
0.18,-0.22,0.94,0.21,-4.35,-11.7
0.16,-0.24,0.93,0.07,-2.57,-10.61
0.14,-0.25,0.92,0.67,-0.99,-9.45
0.11,-0.24,0.92,2.06,0.17,-8.35
0.11,-0.24,0.92,2.06,0.17,-8.35
0.1,-0.23,0.94,4.07,0.87,-7.46
0.11,-0.21,0.96,6.4,1.2,-6.82
0.11,-0.19,0.97,8.62,1.29,-6.33
0.11,-0.17,0.99,10.4,1.26,-5.96
0.1,-0.16,1.0,11.61,1.16,-5.73
0.1,-0.16,1.0,11.61,1.16,-5.73
0.09,-0.15,1.01,12.16,0.95,-5.67
0.09,-0.14,1.01,11.94,0.6,-5.73
0.09,-0.14,1.01,11.04,0.14,-5.86
0.1,-0.15,1.0,9.72,-0.41,-6.02
0.11,-0.17,0.98,8.27,-1.02,-6.14
0.11,-0.17,0.98,8.27,-1.02,-6.14
0.11,-0.18,0.97,6.99,-1.57,-6.15
0.13,-0.19,0.96,6.08,-1.96,-6.08
0.14,-0.2,0.95,5.67,-2.14,-5.92
0.14,-0.2,0.94,5.76,-2.12,-5.66
0.15,-0.21,0.94,6.37,-1.86,-5.27
0.15,-0.21,0.94,6.37,-1.86,-5.27
0.15,-0.21,0.94,7.37,-1.39,-4.82
0.14,-0.2,0.93,8.73,-0.74,-4.37
0.14,-0.19,0.94,10.31,0.01,-3.94
0.12,-0.18,0.94,11.94,0.71,-3.54
0.11,-0.17,0.95,13.47,1.19,-3.21
0.11,-0.17,0.95,13.47,1.19,-3.21
0.11,-0.15,0.95,14.71,1.39,-2.98
0.12,-0.14,0.96,15.54,1.26,-2.78
0.12,-0.14,0.97,15.86,0.94,-2.58
0.12,-0.13,0.97,15.74,0.58,-2.47
0.13,-0.12,0.97,15.19,0.25,-2.48
0.13,-0.12,0.97,15.19,0.25,-2.48
0.13,-0.12,0.97,14.19,0.01,-2.63
0.14,-0.12,0.97,12.78,-0.06,-2.82
