ax,ay,az,gx,gy,gz
-0.74,0.56,0.63,35.51,16.63,-5.49
-0.74,0.58,0.64,36.22,16.67,-4.48
-0.73,0.58,0.65,35.96,16.61,-3.83
-0.73,0.57,0.64,34.87,16.53,-3.56
-0.73,0.57,0.64,34.87,16.53,-3.56
-0.74,0.56,0.63,33.09,16.57,-3.77
-0.74,0.55,0.62,30.94,16.72,-4.38
-0.73,0.54,0.61,28.61,16.78,-5.25
-0.74,0.53,0.61,26.27,16.59,-6.34
-0.75,0.53,0.61,23.99,16.2,-7.66
-0.75,0.53,0.61,23.99,16.2,-7.66
-0.74,0.52,0.61,21.84,15.66,-9.13
-0.74,0.52,0.61,19.76,14.89,-10.57
-0.73,0.52,0.61,17.7,13.89,-11.85
-0.73,0.52,0.61,15.66,12.86,-13.01
-0.73,0.52,0.6,13.69,11.88,-14.1
-0.73,0.52,0.6,13.69,11.88,-14.1
-0.72,0.51,0.6,11.81,10.96,-15.21
-0.71,0.49,0.59,10.18,9.96,-16.19
-0.71,0.46,0.57,8.99,9.27,-17.1
-0.71,0.44,0.55,8.57,9.11,-17.97
-0.72,0.44,0.54,9.13,9.38,-18.62
-0.72,0.44,0.54,9.13,9.38,-18.62
-0.72,0.46,0.55,10.53,9.88,-18.94
-0.73,0.47,0.56,12.43,10.54,-18.92
-0.73,0.5,0.57,14.51,11.23,-18.59
-0.75,0.52,0.58,16.38,11.86,-18.0
-0.76,0.54,0.58,17.71,12.32,-17.16
-0.76,0.54,0.58,17.71,12.32,-17.16
-0.76,0.55,0.58,18.47,12.54,-16.15
-0.77,0.56,0.59,18.71,12.6,-15.01
-0.78,0.57,0.59,18.39,12.45,-13.88
-0.79,0.59,0.59,17.46,12.05,-12.84
-0.8,0.59,0.59,15.88,11.38,-11.97
-0.8,0.59,0.59,15.88,11.38,-11.97
-0.8,0.59,0.6,13.57,10.41,-11.42
-0.8,0.59,0.59,10.76,9.32,-11.18
-0.79,0.58,0.59,7.7,8.2,-11.21
-0.79,0.57,0.58,4.52,7.06,-11.46
-0.78,0.55,0.57,1.38,5.88,-11.95
-0.78,0.55,0.57,1.38,5.88,-11.95
-0.77,0.53,0.57,-1.56,4.69,-12.63
-0.76,0.5,0.56,-4.05,3.24,-13.38
-0.74,0.46,0.54,-5.91,1.73,-14.26
-0.73,0.43,0.52,-6.71,0.57,-15.14
-0.72,0.41,0.51,-6.16,-0.07,-15.72
-0.72,0.41,0.51,-6.16,-0.07,-15.72
-0.72,0.42,0.52,-4.49,-0.27,-15.97
-0.72,0.45,0.53,-2.21,-0.08,-15.94
-0.72,0.47,0.55,0.17,0.37,-15.62
-0.72,0.48,0.56,2.3,0.95,-15.05
-0.73,0.5,0.55,4.02,1.72,-14.33
-0.73,0.5,0.55,4.02,1.72,-14.33
-0.75,0.52,0.56,5.35,2.54,-13.47
-0.75,0.54,0.57,6.14,3.3,-12.55
-0.76,0.55,0.58,6.07,3.98,-11.72
-0.77,0.55,0.57,5.1,4.52,-11.0
-0.77,0.53,0.56,3.51,4.94,-10.43
-0.77,0.53,0.56,3.51,4.94,-10.43
-0.78,0.52,0.56,1.59,5.21,-10.17
-0.78,0.51,0.56,-0.39,5.44,-10.15
-0.77,0.5,0.56,-2.4,5.6,-10.35
-0.77,0.48,0.56,-4.31,5.52,-10.76
-0.77,0.47,0.54,-6.05,5.49,-11.53
-0.77,0.47,0.54,-6.05,5.49,-11.53
-0.76,0.46,0.54,-7.43,5.58,-12.59
-0.75,0.46,0.55,-8.52,5.69,-13.8
-0.74,0.47,0.57,-9.63,5.9,-15.08
-0.74,0.48,0.58,-10.88,6.16,-16.42
-0.75,0.49,0.59,-12.44,6.53,-17.8
-0.75,0.49,0.59,-12.44,6.53,-17.8
-0.75,0.49,0.61,-14.42,7.0,-19.15
-0.75,0.48,0.61,-16.81,7.47,-20.47
-0.76,0.47,0.61,-19.5,8.0,-21.77
-0.77,0.46,0.61,-22.31,8.74,-23.07
-0.78,0.45,0.61,-25.17,9.7,-24.34
-0.78,0.45,0.61,-25.17,9.7,-24.34
-0.8,0.45,0.61,-28.07,10.74,-25.57
-0.81,0.46,0.61,-31.02,11.66,-26.85
-0.82,0.46,0.62,-34.1,12.51,-28.11
-0.83,0.47,0.63,-37.29,13.18,-29.19
-0.84,0.47,0.64,-40.45,13.6,-29.94
-0.84,0.47,0.64,-40.45,13.6,-29.94
-0.84,0.47,0.65,-43.53,13.66,-30.23
-0.86,0.46,0.65,-46.4,13.19,-29.97
-0.88,0.45,0.65,-49.16,12.15,-29.24
-0.89,0.43,0.64,-51.83,10.44,-28.3
-0.9,0.4,0.62,-54.14,8.17,-27.31
-0.9,0.4,0.62,-54.14,8.17,-27.31
-0.9,0.38,0.61,-55.77,5.61,-26.59
-0.89,0.37,0.6,-56.47,3.01,-26.28
-0.87,0.37,0.6,-56.23,0.61,-26.39
-0.85,0.38,0.61,-55.38,-1.43,-26.74
-0.83,0.4,0.62,-54.41,-2.96,-27.27
-0.83,0.4,0.62,-54.41,-2.96,-27.27
-0.82,0.4,0.63,-53.82,-3.87,-27.91
-0.81,0.4,0.63,-53.77,-4.14,-28.62
-0.8,0.39,0.62,-54.15,-3.92,-29.23
-0.8,0.37,0.62,-54.81,-3.43,-29.76
-0.79,0.36,0.61,-55.58,-2.77,-30.2
-0.79,0.36,0.61,-55.58,-2.77,-30.2
-0.79,0.35,0.6,-56.33,-2.08,-30.55
-0.79,0.35,0.6,-56.92,-1.48,-30.82
-0.79,0.34,0.6,-57.31,-0.98,-31.0
-0.79,0.34,0.59,-57.6,-0.57,-31.1
-0.79,0.33,0.59,-57.77,-0.3,-31.16
-0.79,0.33,0.59,-57.77,-0.3,-31.16
-0.78,0.32,0.58,-57.76,-0.14,-31.21
-0.78,0.32,0.58,-57.59,-0.02,-31.35
-0.78,0.32,0.59,-57.27,0.22,-31.57
-0.78,0.32,0.58,-56.91,0.47,-31.8
-0.79,0.32,0.58,-56.62,0.66,-32.13
-0.79,0.32,0.58,-56.62,0.66,-32.13
-0.79,0.32,0.58,-56.44,0.72,-32.65
-0.78,0.31,0.58,-56.37,0.72,-33.32
-0.76,0.32,0.59,-56.46,0.76,-33.99
-0.75,0.32,0.6,-56.76,0.75,-34.44
-0.75,0.33,0.61,-57.34,0.64,-34.57
-0.75,0.33,0.61,-57.34,0.64,-34.57
-0.76,0.32,0.62,-58.35,0.35,-34.31
-0.77,0.31,0.62,-59.98,-0.19,-33.67
-0.78,0.29,0.61,-62.04,-0.95,-32.87
-0.78,0.26,0.59,-64.16,-1.85,-32.12
-0.78,0.24,0.58,-65.97,-2.76,-31.54
-0.78,0.24,0.58,-65.97,-2.76,-31.54
-0.77,0.22,0.56,-67.16,-3.68,-31.17
-0.75,0.23,0.57,-67.62,-4.46,-31.0
-0.74,0.24,0.58,-67.54,-4.85,-30.91
-0.75,0.26,0.6,-67.42,-4.94,-30.74
-0.75,0.26,0.61,-67.66,-4.89,-30.45
-0.75,0.26,0.61,-67.66,-4.89,-30.45
-0.76,0.26,0.62,-68.38,-4.78,-29.95
-0.76,0.25,0.63,-69.6,-4.67,-29.22
-0.77,0.23,0.62,-71.24,-4.59,-28.32
-0.77,0.21,0.62,-73.0,-4.59,-27.28
-0.77,0.19,0.62,-74.55,-4.69,-26.02
-0.77,0.19,0.62,-74.55,-4.69,-26.02
-0.77,0.17,0.63,-75.78,-4.91,-24.45
-0.77,0.17,0.64,-76.78,-5.42,-22.51
-0.77,0.17,0.65,-77.61,-6.29,-20.01
-0.79,0.17,0.65,-78.53,-7.62,-16.94
-0.81,0.17,0.66,-79.74,-9.38,-13.59
-0.81,0.17,0.66,-79.74,-9.38,-13.59
-0.83,0.15,0.66,-81.15,-11.4,-10.37
-0.84,0.13,0.64,-82.52,-13.48,-7.38
-0.84,0.1,0.64,-83.67,-15.39,-4.8
-0.84,0.07,0.64,-84.47,-16.89,-3.0
-0.84,0.04,0.62,-84.63,-17.61,-2.13
-0.84,0.04,0.62,-84.63,-17.61,-2.13
-0.84,0.03,0.61,-83.89,-17.25,-2.16
-0.84,0.02,0.61,-82.13,-15.98,-2.75
-0.83,0.02,0.63,-79.68,-14.15,-3.67
-0.82,0.03,0.65,-77.09,-11.89,-4.75
-0.81,0.03,0.64,-74.66,-9.31,-5.86
-0.81,0.03,0.64,-74.66,-9.31,-5.86
-0.81,0.02,0.63,-72.36,-6.64,-6.86
-0.81,0.02,0.63,-69.99,-4.23,-7.58
-0.8,0.02,0.64,-67.51,-2.28,-7.87
-0.8,0.03,0.65,-65.0,-0.85,-7.53
-0.8,0.03,0.66,-62.7,0.06,-6.58
-0.8,0.03,0.66,-62.7,0.06,-6.58
-0.8,0.03,0.66,-60.87,0.5,-5.2
-0.8,0.01,0.65,-59.47,0.66,-3.58
-0.8,-0.01,0.63,-58.18,0.75,-1.89
-0.8,-0.03,0.62,-56.66,0.95,-0.28
-0.81,-0.04,0.62,-54.84,1.36,1.02
-0.81,-0.04,0.62,-54.84,1.36,1.02
-0.81,-0.04,0.61,-52.77,2.04,1.83
-0.8,-0.04,0.6,-50.51,3.07,2.12
-0.8,-0.04,0.6,-48.11,4.38,1.93
-0.8,-0.03,0.6,-45.63,5.96,1.45
-0.8,-0.01,0.61,-43.18,7.64,0.86
-0.8,-0.01,0.61,-43.18,7.64,0.86
-0.81,0.01,0.62,-41.0,9.2,0.22
-0.82,0.03,0.63,-39.34,10.44,-0.42
-0.82,0.03,0.64,-38.37,11.16,-0.91
-0.82,0.03,0.63,-38.13,11.25,-1.2
-0.82,0.03,0.63,-38.46,10.68,-1.31
-0.82,0.03,0.63,-38.46,10.68,-1.31
-0.81,0.02,0.63,-39.15,9.74,-1.23
-0.8,0.0,0.62,-40.09,8.74,-1.08
-0.79,-0.01,0.62,-41.04,7.89,-0.92
-0.78,-0.02,0.61,-41.8,7.3,-0.63
-0.78,-0.03,0.61,-42.34,6.96,-0.2
-0.78,-0.03,0.61,-42.34,6.96,-0.2
-0.78,-0.04,0.6,-42.63,6.81,0.33
-0.79,-0.05,0.6,-42.76,6.8,0.84
-0.79,-0.06,0.59,-42.7,6.98,1.23
-0.79,-0.06,0.59,-42.28,7.31,1.46
-0.79,-0.06,0.58,-41.33,7.77,1.6
-0.79,-0.06,0.58,-41.33,7.77,1.6
-0.79,-0.04,0.6,-39.99,8.34,1.76
-0.8,-0.01,0.61,-38.65,8.9,2.08
-0.81,0.0,0.62,-37.67,9.33,2.47
-0.81,0.0,0.62,-37.22,9.64,2.9
-0.81,0.0,0.62,-37.22,9.86,3.28
-0.81,0.0,0.62,-37.22,9.86,3.28
-0.82,-0.0,0.61,-37.48,10.03,3.67
-0.83,-0.01,0.61,-37.87,10.23,4.01
-0.83,-0.01,0.59,-38.37,10.33,4.23
-0.83,-0.01,0.59,-38.78,10.17,4.36
-0.83,-0.01,0.59,-39.02,9.9,4.37
-0.83,-0.01,0.59,-39.02,9.9,4.37
-0.83,-0.01,0.59,-39.14,9.69,4.3
-0.82,0.01,0.6,-39.19,9.59,4.31
-0.82,0.03,0.61,-39.28,9.58,4.56
-0.83,0.04,0.63,-39.83,9.72,5.02
-0.85,0.04,0.63,-41.17,9.96,5.33
-0.85,0.04,0.63,-41.17,9.96,5.33
-0.87,0.03,0.62,-43.37,10.22,5.18
-0.87,-0.0,0.6,-46.06,10.46,4.44
-0.87,-0.03,0.59,-48.67,10.51,3.35
-0.86,-0.05,0.59,-50.83,10.33,2.17
-0.86,-0.05,0.59,-52.57,9.93,0.96
-0.86,-0.05,0.6,-52.57,9.93,0.96
-0.85,-0.05,0.6,-54.0,9.24,-0.14
-0.84,-0.06,0.59,-55.28,8.28,-1.0
-0.84,-0.07,0.58,-56.4,7.05,-1.64
-0.83,-0.08,0.57,-57.25,5.76,-2.14
-0.83,-0.08,0.57,-57.63,4.53,-2.42
-0.81,-0.09,0.56,-57.63,4.53,-2.42
-0.81,-0.09,0.57,-57.59,3.5,-2.43
-0.8,-0.1,0.58,-57.37,2.77,-2.23
-0.8,-0.11,0.58,-57.14,2.48,-1.91
-0.79,-0.13,0.57,-56.89,2.73,-1.55
-0.79,-0.13,0.57,-56.89,2.73,-1.55
-0.8,-0.15,0.56,-56.44,3.43,-1.13
-0.81,-0.16,0.54,-55.53,4.45,-0.73
-0.82,-0.17,0.54,-54.09,5.58,-0.41
-0.83,-0.17,0.54,-52.08,6.55,-0.13
-0.82,-0.16,0.54,-49.68,7.23,0.2
-0.82,-0.16,0.54,-49.68,7.23,0.2
-0.83,-0.15,0.56,-47.01,7.61,0.62
-0.83,-0.15,0.57,-44.36,7.79,1.05
-0.83,-0.14,0.57,-41.95,7.74,1.41
-0.83,-0.14,0.57,-39.83,7.44,1.78
-0.83,-0.13,0.57,-37.9,6.95,2.12
-0.83,-0.13,0.57,-37.9,6.95,2.12
-0.84,-0.12,0.57,-36.29,6.32,2.28
-0.84,-0.12,0.57,-35.16,5.75,2.13
-0.84,-0.12,0.57,-34.49,5.34,1.63
-0.84,-0.12,0.56,-34.13,5.06,0.81
-0.83,-0.12,0.55,-34.07,4.81,-0.17
-0.83,-0.12,0.55,-34.07,4.81,-0.17
-0.83,-0.11,0.55,-34.17,4.55,-1.18
-0.82,-0.12,0.55,-34.42,4.26,-2.15
-0.81,-0.13,0.56,-34.84,3.94,-2.98
-0.8,-0.14,0.56,-35.4,3.59,-3.55
-0.8,-0.16,0.55,-35.99,3.24,-3.8
-0.8,-0.16,0.55,-35.99,3.24,-3.8
-0.81,-0.17,0.55,-36.34,2.9,-3.73
-0.83,-0.17,0.55,-36.62,2.59,-3.64
-0.84,-0.18,0.53,-36.9,2.26,-3.93
-0.85,-0.18,0.52,-36.83,1.79,-4.54
-0.88,-0.15,0.54,-36.37,1.18,-5.48
-0.88,-0.15,0.54,-36.37,1.18,-5.48
-0.92,-0.1,0.57,-36.1,0.31,-7.31
-0.94,-0.06,0.61,-36.64,-1.05,-10.36
-0.95,-0.02,0.64,-38.81,-3.17,-14.68
-0.93,0.01,0.67,-43.07,-6.21,-19.88
-0.91,0.02,0.69,-49.57,-9.96,-25.65
-0.91,0.02,0.69,-49.57,-9.96,-25.65
-0.86,-0.0,0.69,-58.37,-14.16,-31.72
-0.81,-0.06,0.66,-69.2,-18.41,-37.53
-0.77,-0.14,0.62,-81.14,-22.2,-42.59
-0.74,-0.23,0.56,-92.78,-25.26,-46.7
-0.71,-0.32,0.51,-102.93,-27.47,-49.7
-0.71,-0.32,0.51,-102.93,-27.47,-49.7
-0.69,-0.41,0.46,-110.84,-28.84,-51.42
-0.68,-0.49,0.41,-115.9,-29.42,-51.84
-0.66,-0.56,0.37,-117.53,-29.31,-50.86
-0.66,-0.61,0.34,-115.35,-28.4,-48.54
-0.66,-0.64,0.33,-109.25,-26.69,-44.95
-0.66,-0.64,0.33,-109.25,-26.69,-44.95
-0.67,-0.64,0.33,-99.56,-24.18,-40.4
-0.7,-0.59,0.35,-86.88,-21.08,-35.25
-0.73,-0.52,0.39,-72.2,-17.65,-29.96
-0.75,-0.43,0.45,-56.86,-14.18,-24.79
-0.78,-0.34,0.5,-42.38,-11.04,-19.93
-0.78,-0.34,0.5,-42.38,-11.04,-19.93
-0.8,-0.26,0.55,-29.81,-8.38,-15.55
-0.83,-0.21,0.58,-19.7,-6.35,-11.72
-0.85,-0.17,0.61,-12.36,-5.04,-8.41
-0.87,-0.14,0.62,-7.87,-4.42,-5.79
-0.88,-0.13,0.62,-5.96,-4.37,-4.12
-0.88,-0.13,0.62,-5.96,-4.37,-4.12
-0.87,-0.15,0.61,-6.27,-4.8,-3.38
-0.86,-0.17,0.6,-8.36,-5.46,-3.44
-0.83,-0.21,0.57,-11.51,-6.0,-4.07
-0.81,-0.26,0.54,-14.99,-6.22,-5.06
-0.8,-0.3,0.52,-18.2,-6.17,-6.09
-0.8,-0.3,0.52,-18.2,-6.17,-6.09
-0.78,-0.34,0.5,-20.64,-6.0,-6.98
-0.76,-0.36,0.48,-21.98,-5.78,-7.41
-0.76,-0.38,0.48,-22.12,-5.59,-7.18
-0.76,-0.39,0.47,-21.1,-5.39,-6.34
-0.77,-0.38,0.46,-18.92,-5.18,-5.04
-0.77,-0.38,0.46,-18.92,-5.18,-5.04
-0.77,-0.37,0.46,-15.69,-5.0,-3.37
-0.78,-0.34,0.48,-11.74,-4.91,-1.39
-0.79,-0.31,0.5,-7.64,-4.76,0.7
-0.8,-0.28,0.52,-3.87,-4.43,2.6
-0.8,-0.26,0.52,-0.68,-3.88,4.24
-0.8,-0.26,0.52,-0.68,-3.88,4.24
-0.8,-0.24,0.54,1.68,-3.28,5.59
-0.81,-0.23,0.55,3.05,-2.71,6.6
-0.8,-0.22,0.55,3.4,-2.16,7.2
-0.8,-0.22,0.55,2.93,-1.59,7.56
-0.8,-0.23,0.54,1.87,-1.04,7.78
-0.8,-0.23,0.54,1.87,-1.04,7.78
-0.81,-0.23,0.53,0.49,-0.75,7.81
-0.81,-0.24,0.53,-1.08,-0.82,7.73
-0.79,-0.25,0.53,-2.82,-1.22,7.69
-0.77,-0.27,0.53,-4.69,-1.73,7.78
-0.76,-0.28,0.52,-6.55,-2.04,8.04
-0.76,-0.28,0.52,-6.55,-2.04,8.04
-0.75,-0.31,0.51,-8.21,-1.95,8.41
-0.75,-0.34,0.5,-9.48,-1.46,8.83
-0.75,-0.36,0.48,-10.13,-0.62,9.3
-0.76,-0.37,0.47,-9.89,0.47,9.76
-0.77,-0.37,0.47,-8.66,1.66,10.21
-0.77,-0.37,0.47,-8.66,1.66,10.21
-0.79,-0.35,0.48,-6.54,2.81,10.7
-0.8,-0.32,0.5,-3.97,3.76,11.23
-0.8,-0.3,0.52,-1.59,4.47,11.64
-0.81,-0.28,0.54,0.15,4.91,11.93
-0.81,-0.27,0.55,1.18,5.13,12.04
-0.81,-0.27,0.55,1.18,5.13,12.04
-0.8,-0.27,0.56,1.5,5.24,12.0
-0.8,-0.27,0.56,1.07,5.29,11.75
-0.8,-0.29,0.56,-0.0,5.39,11.26
-0.8,-0.31,0.55,-1.3,5.62,10.56
-0.81,-0.33,0.54,-2.64,6.08,9.58
-0.81,-0.33,0.54,-2.64,6.08,9.58
-0.8,-0.35,0.52,-3.73,6.55,8.37
-0.8,-0.35,0.51,-4.14,6.98,7.36
-0.81,-0.35,0.52,-3.88,7.39,6.47
-0.82,-0.35,0.52,-3.18,7.75,5.57
-0.82,-0.34,0.52,-2.17,7.96,4.75
-0.82,-0.34,0.52,-2.17,7.96,4.75
-0.82,-0.33,0.53,-1.0,7.93,4.08
-0.83,-0.32,0.54,0.2,7.71,3.55
-0.83,-0.31,0.55,1.25,7.3,3.03
-0.83,-0.31,0.56,2.02,6.74,2.44
-0.83,-0.3,0.57,2.42,6.0,1.8
-0.83,-0.3,0.57,2.42,6.0,1.8
-0.83,-0.29,0.57,2.43,5.04,1.22
-0.83,-0.3,0.57,1.98,3.85,0.64
-0.83,-0.31,0.56,1.17,2.47,0.05
-0.82,-0.32,0.55,0.25,1.04,-0.51
-0.81,-0.34,0.54,-0.46,-0.35,-1.04
-0.81,-0.34,0.54,-0.46,-0.35,-1.04
-0.81,-0.35,0.52,-0.76,-1.51,-1.49
-0.81,-0.35,0.51,-0.56,-2.4,-1.95
-0.81,-0.35,0.51,0.2,-3.02,-2.45
-0.81,-0.33,0.52,1.45,-3.46,-2.93
-0.81,-0.31,0.53,2.9,-3.85,-3.26
-0.81,-0.31,0.53,2.9,-3.85,-3.26
-0.81,-0.3,0.54,4.17,-4.15,-3.55
-0.81,-0.29,0.55,5.1,-4.46,-3.72
-0.81,-0.28,0.55,5.71,-4.88,-3.72
-0.81,-0.26,0.56,6.01,-5.47,-3.51
-0.82,-0.27,0.56,5.9,-6.26,-3.19
-0.82,-0.27,0.56,5.9,-6.26,-3.19
-0.81,-0.28,0.56,5.32,-7.14,-2.9
-0.8,-0.3,0.54,4.55,-8.0,-2.7
-0.79,-0.32,0.53,4.06,-8.62,-2.65
-0.79,-0.33,0.52,4.13,-8.96,-2.68
-0.78,-0.33,0.53,4.77,-9.01,-2.77
-0.78,-0.33,0.53,4.77,-9.01,-2.77
-0.78,-0.32,0.53,5.78,-8.84,-2.85
-0.78,-0.32,0.53,6.94,-8.54,-2.92
-0.77,-0.32,0.54,8.17,-8.13,-2.95
-0.77,-0.32,0.54,9.52,-7.63,-2.9
-0.78,-0.31,0.53,11.03,-7.13,-2.73
-0.78,-0.31,0.53,11.03,-7.13,-2.73
-0.78,-0.3,0.54,12.69,-6.69,-2.46
-0.79,-0.29,0.55,14.27,-6.31,-2.16
-0.79,-0.28,0.55,15.65,-5.97,-1.89
-0.79,-0.28,0.55,16.84,-5.68,-1.66
-0.79,-0.28,0.55,17.87,-5.44,-1.47
-0.79,-0.28,0.55,17.87,-5.44,-1.47
-0.79,-0.28,0.55,18.83,-5.23,-1.31
-0.78,-0.28,0.55,19.71,-5.0,-1.2
-0.78,-0.29,0.55,20.54,-4.68,-1.16
-0.77,-0.29,0.54,21.38,-4.26,-1.17
-0.77,-0.3,0.54,22.34,-3.81,-1.21
-0.77,-0.3,0.54,22.34,-3.81,-1.21
-0.76,-0.3,0.53,23.54,-3.34,-1.23
-0.75,-0.31,0.53,25.02,-2.78,-1.23
-0.75,-0.31,0.53,26.82,-2.08,-1.12
-0.74,-0.31,0.52,28.97,-1.24,-0.86
-0.74,-0.3,0.52,31.52,-0.37,-0.35
-0.74,-0.3,0.52,31.52,-0.37,-0.35
-0.75,-0.28,0.52,34.45,0.31,0.61
-0.75,-0.25,0.54,37.54,0.68,2.1
-0.75,-0.23,0.56,40.34,0.72,4.15
-0.75,-0.22,0.56,42.49,0.43,6.71
-0.75,-0.22,0.56,43.94,-0.08,9.61
-0.75,-0.22,0.56,43.94,-0.08,9.61
-0.75,-0.24,0.55,45.12,-0.66,12.72
-0.74,-0.26,0.53,46.55,-1.15,15.94
-0.74,-0.27,0.52,48.55,-1.41,19.13
-0.74,-0.27,0.52,51.29,-1.4,22.2
-0.74,-0.26,0.52,54.75,-0.98,25.1
-0.74,-0.26,0.52,54.75,-0.98,25.1
-0.75,-0.25,0.54,58.74,-0.09,27.73
-0.76,-0.24,0.55,63.11,1.11,30.07
-0.78,-0.22,0.55,67.63,2.39,32.07
-0.81,-0.19,0.56,72.12,3.44,33.79
-0.84,-0.15,0.57,76.42,4.11,35.2
-0.84,-0.15,0.57,76.42,4.11,35.2
-0.85,-0.11,0.58,80.31,4.37,36.2
-0.86,-0.08,0.6,83.52,4.13,36.81
-0.86,-0.04,0.62,85.74,3.4,37.05
-0.86,-0.01,0.63,86.78,2.23,36.97
-0.84,0.0,0.64,86.55,0.76,36.68
-0.84,0.0,0.64,86.55,0.76,36.68
-0.83,0.0,0.65,85.07,-0.92,36.19
-0.81,-0.01,0.65,82.51,-2.59,35.54
-0.8,-0.03,0.64,79.2,-4.16,34.76
-0.79,-0.05,0.64,75.66,-5.49,33.91
-0.79,-0.07,0.63,72.26,-6.52,32.95
-0.79,-0.07,0.63,72.26,-6.52,32.95
-0.78,-0.1,0.62,69.22,-7.26,31.86
-0.78,-0.12,0.6,66.71,-7.7,30.66
-0.77,-0.14,0.58,65.03,-7.76,29.5
-0.78,-0.15,0.57,64.41,-7.48,28.45
-0.78,-0.15,0.56,64.9,-7.07,27.54
-0.78,-0.15,0.56,64.9,-7.07,27.54
-0.79,-0.14,0.56,66.38,-6.63,26.72
-0.79,-0.11,0.57,68.6,-6.26,25.94
-0.79,-0.07,0.58,71.28,-5.96,25.29
-0.79,-0.03,0.6,74.01,-5.71,24.84
-0.79,0.01,0.63,76.21,-5.58,24.57
-0.79,0.01,0.63,76.21,-5.58,24.57
-0.79,0.03,0.65,77.4,-5.57,24.36
-0.78,0.04,0.66,77.48,-5.61,24.22
-0.77,0.03,0.67,76.65,-5.66,24.23
-0.78,0.01,0.67,75.27,-5.74,24.29
-0.79,-0.01,0.64,73.77,-5.62,24.14
-0.79,-0.01,0.64,73.77,-5.62,24.14
-0.8,-0.02,0.62,72.63,-5.3,23.65
-0.82,-0.01,0.6,72.16,-5.06,22.97
-0.83,0.01,0.6,72.37,-5.11,22.07
-0.84,0.04,0.61,72.97,-5.33,20.8
-0.83,0.07,0.62,73.51,-5.51,19.13
-0.83,0.07,0.62,73.51,-5.51,19.13
-0.82,0.1,0.63,73.68,-5.73,17.32
-0.8,0.12,0.65,73.14,-5.95,15.57
-0.78,0.13,0.66,71.75,-6.0,14.01
-0.77,0.12,0.67,69.47,-5.7,12.59
-0.76,0.11,0.67,66.43,-4.97,11.35
-0.76,0.11,0.67,66.43,-4.97,11.35
-0.75,0.1,0.66,62.87,-3.84,10.27
-0.74,0.08,0.65,59.23,-2.3,9.42
-0.72,0.05,0.64,55.89,-0.35,8.97
-0.71,0.02,0.63,53.13,1.97,9.22
-0.7,0.0,0.62,51.23,4.67,10.31
-0.7,0.0,0.62,51.23,4.67,10.31
-0.72,-0.01,0.61,50.54,7.71,12.22
-0.75,-0.01,0.59,51.31,10.72,14.86
-0.8,0.0,0.58,53.62,13.18,18.15
-0.83,0.02,0.58,57.29,14.62,21.78
-0.85,0.06,0.58,61.9,15.18,25.32
-0.85,0.06,0.58,61.9,15.18,25.32
-0.87,0.11,0.59,67.08,15.01,28.6
-0.87,0.16,0.62,72.18,14.19,31.59
-0.87,0.21,0.64,76.57,12.93,34.11
-0.87,0.26,0.65,79.76,11.6,36.04
-0.87,0.28,0.67,81.53,10.34,37.39
-0.87,0.28,0.67,81.53,10.34,37.39
-0.86,0.28,0.68,81.76,9.18,38.31
-0.85,0.28,0.69,80.5,8.14,38.77
-0.85,0.27,0.68,78.06,7.3,38.74
-0.85,0.25,0.67,74.9,6.56,38.24
-0.85,0.22,0.66,71.56,5.88,37.26
-0.85,0.22,0.66,71.56,5.88,37.26
-0.85,0.21,0.65,68.5,5.13,35.89
-0.85,0.21,0.66,65.92,4.2,34.3
-0.85,0.22,0.66,63.73,3.05,32.59
-0.85,0.23,0.64,61.66,1.46,30.82
-0.82,0.24,0.61,59.59,-0.59,29.12
-0.82,0.24,0.61,59.59,-0.59,29.12
-0.77,0.21,0.59,57.64,-2.98,27.95
-0.73,0.18,0.56,56.27,-5.02,27.61
-0.7,0.16,0.51,56.01,-5.78,27.83
-0.68,0.14,0.47,57.41,-5.13,28.67
-0.69,0.15,0.46,60.68,-3.44,30.32
-0.69,0.15,0.46,60.68,-3.44,30.32
-0.69,0.17,0.46,65.56,-1.14,32.64
-0.69,0.2,0.48,71.56,1.63,35.4
-0.7,0.25,0.5,78.07,4.63,38.43
-0.72,0.3,0.52,84.47,7.68,41.65
-0.73,0.35,0.54,90.14,10.52,44.89
-0.73,0.35,0.54,90.14,10.52,44.89
-0.76,0.39,0.57,94.57,12.98,47.82
-0.78,0.43,0.59,97.49,15.01,50.19
-0.81,0.46,0.6,98.78,16.68,51.78
-0.83,0.48,0.61,98.38,17.94,52.39
