ax,ay,az,gx,gy,gz
-0.23,-0.06,0.87,-7.28,9.2,-26.13
-0.24,-0.07,0.86,-7.13,12.02,-25.91
-0.24,-0.07,0.86,-6.57,14.5,-25.4
-0.26,-0.07,0.86,-5.64,16.65,-24.64
-0.26,-0.07,0.86,-5.64,16.65,-24.64
-0.27,-0.07,0.86,-4.47,18.47,-23.75
-0.3,-0.06,0.86,-3.25,20.01,-22.98
-0.31,-0.06,0.86,-2.02,21.34,-22.5
-0.32,-0.06,0.86,-0.85,22.59,-22.49
-0.31,-0.06,0.86,0.23,23.87,-22.91
-0.31,-0.06,0.86,0.23,23.87,-22.91
-0.3,-0.05,0.86,1.29,25.23,-23.53
-0.28,-0.04,0.86,2.21,26.67,-23.91
-0.28,-0.02,0.87,2.82,28.18,-23.85
-0.28,-0.0,0.87,2.89,29.68,-23.37
-0.29,0.0,0.86,2.32,31.11,-22.65
-0.29,0.0,0.86,2.32,31.11,-22.65
-0.29,0.0,0.86,1.26,32.33,-21.66
-0.3,0.01,0.85,-0.01,33.19,-20.23
-0.32,0.01,0.85,-1.33,33.63,-18.38
-0.34,0.01,0.84,-2.62,33.7,-16.23
-0.34,0.01,0.83,-3.92,33.37,-13.99
-0.34,0.01,0.83,-3.92,33.37,-13.99
-0.34,0.0,0.83,-5.16,32.74,-11.73
-0.34,-0.01,0.82,-6.19,32.02,-9.38
-0.34,-0.02,0.81,-6.91,31.47,-6.96
-0.35,-0.03,0.8,-7.17,31.25,-4.62
-0.35,-0.04,0.79,-7.05,31.5,-2.45
-0.35,-0.04,0.79,-7.05,31.5,-2.45
-0.35,-0.04,0.78,-6.56,32.47,-0.46
-0.35,-0.06,0.77,-5.57,34.41,1.21
-0.35,-0.07,0.75,-3.96,37.4,2.61
-0.34,-0.08,0.73,-1.8,41.2,3.83
-0.33,-0.08,0.72,1.05,45.52,5.03
-0.33,-0.08,0.72,1.05,45.52,5.03
-0.33,-0.08,0.71,4.72,50.3,6.32
-0.33,-0.08,0.7,9.17,55.48,7.68
-0.34,-0.07,0.69,14.16,60.84,9.18
-0.34,-0.06,0.69,19.53,66.3,10.87
-0.35,-0.06,0.68,25.25,71.8,12.68
-0.35,-0.06,0.68,25.25,71.8,12.68
-0.35,-0.04,0.68,31.18,77.17,14.68
-0.36,-0.02,0.69,37.13,82.23,16.96
-0.38,0.01,0.7,42.87,86.82,19.57
-0.41,0.04,0.72,48.12,90.82,22.37
-0.44,0.07,0.74,52.68,94.04,25.26
-0.44,0.07,0.74,52.68,94.04,25.26
-0.47,0.1,0.76,56.43,96.19,28.13
-0.49,0.14,0.77,59.23,97.1,30.96
-0.5,0.16,0.79,60.87,96.68,33.65
-0.52,0.18,0.81,61.17,94.91,36.17
-0.53,0.18,0.82,60.15,91.99,38.36
-0.53,0.18,0.82,60.15,91.99,38.36
-0.55,0.17,0.83,57.93,88.23,39.96
-0.56,0.14,0.83,54.93,83.84,40.74
-0.57,0.12,0.82,51.52,78.93,40.67
-0.55,0.1,0.83,47.91,73.72,39.88
-0.53,0.09,0.84,44.22,68.48,38.53
-0.53,0.09,0.84,44.22,68.48,38.53
-0.52,0.08,0.86,40.39,63.44,36.79
-0.52,0.07,0.87,36.31,58.7,34.76
-0.52,0.07,0.87,32.05,54.32,32.43
-0.52,0.06,0.88,27.69,50.16,29.9
-0.51,0.04,0.88,23.27,46.08,27.23
-0.51,0.04,0.88,23.27,46.08,27.23
-0.51,0.02,0.89,18.89,42.11,24.59
-0.51,0.01,0.88,14.73,38.22,22.08
-0.53,-0.0,0.87,11.07,34.25,19.75
-0.54,0.0,0.87,8.06,30.02,17.53
-0.52,0.0,0.88,5.65,25.49,15.41
-0.52,0.0,0.88,5.65,25.49,15.41
-0.5,0.0,0.89,3.68,20.77,13.46
-0.49,0.0,0.9,1.97,16.03,11.75
-0.48,0.0,0.91,0.38,11.36,10.22
-0.47,-0.01,0.91,-1.09,6.91,8.86
-0.47,-0.01,0.91,-2.42,2.8,7.67
-0.47,-0.01,0.91,-2.42,2.8,7.67
-0.47,-0.02,0.91,-3.67,-0.89,6.61
-0.48,-0.02,0.91,-4.87,-4.09,5.54
-0.48,-0.04,0.91,-5.95,-6.76,4.4
-0.48,-0.06,0.9,-6.89,-8.97,3.22
-0.48,-0.08,0.89,-7.53,-10.75,2.06
-0.48,-0.08,0.89,-7.53,-10.75,2.06
-0.49,-0.09,0.88,-7.73,-12.2,1.05
-0.51,-0.1,0.87,-7.44,-13.32,0.06
-0.52,-0.1,0.87,-6.65,-14.17,-1.04
-0.51,-0.1,0.86,-5.42,-14.78,-2.25
-0.49,-0.08,0.87,-3.79,-15.16,-3.51
-0.49,-0.08,0.87,-3.79,-15.16,-3.51
-0.47,-0.06,0.88,-1.94,-15.3,-4.78
-0.46,-0.03,0.89,-0.12,-15.21,-6.11
-0.46,0.0,0.91,1.44,-15.05,-7.5
-0.46,0.03,0.92,2.57,-14.98,-8.87
-0.46,0.05,0.93,3.2,-15.13,-10.18
-0.46,0.05,0.93,3.2,-15.13,-10.18
-0.45,0.06,0.93,3.31,-15.49,-11.43
-0.45,0.06,0.93,2.95,-16.11,-12.52
-0.44,0.05,0.92,2.24,-16.99,-13.38
-0.44,0.03,0.92,1.38,-18.08,-13.97
-0.44,0.01,0.9,0.64,-19.23,-14.35
-0.44,0.01,0.9,0.64,-19.23,-14.35
-0.45,-0.0,0.89,0.12,-20.29,-14.64
-0.44,-0.02,0.88,-0.06,-21.18,-14.91
-0.44,-0.03,0.87,0.24,-21.87,-15.21
-0.42,-0.03,0.87,1.06,-22.25,-15.48
-0.41,-0.02,0.87,2.37,-22.33,-15.75
-0.41,-0.02,0.87,2.37,-22.33,-15.75
-0.39,0.0,0.87,4.05,-22.06,-16.07
-0.37,0.03,0.89,5.88,-21.46,-16.5
-0.37,0.05,0.89,7.6,-20.55,-17.03
-0.36,0.07,0.9,9.0,-19.44,-17.64
-0.37,0.09,0.91,9.9,-18.26,-18.24
-0.37,0.09,0.91,9.9,-18.26,-18.24
-0.38,0.1,0.92,10.25,-17.05,-18.86
-0.39,0.11,0.92,10.08,-15.87,-19.6
-0.4,0.11,0.91,9.37,-14.82,-20.4
-0.41,0.1,0.91,8.28,-13.9,-21.26
-0.41,0.09,0.9,6.92,-13.13,-22.11
-0.41,0.09,0.9,6.92,-13.13,-22.11
-0.41,0.09,0.89,5.44,-12.39,-22.89
-0.39,0.06,0.88,3.91,-11.65,-23.97
-0.39,0.06,0.88,2.55,-10.63,-24.82
-0.39,0.07,0.87,0.83,-9.28,-25.54
-0.38,0.07,0.84,-0.92,-7.36,-26.59
-0.38,0.07,0.84,-0.92,-7.36,-26.59
-0.38,0.07,0.84,-2.45,-4.83,-27.93
-0.36,0.06,0.84,-3.84,-1.9,-29.67
-0.34,0.05,0.83,-5.13,1.38,-31.36
-0.34,0.05,0.83,-6.16,5.13,-32.65
-0.36,0.06,0.82,-7.0,8.93,-33.63
-0.36,0.06,0.82,-7.0,8.93,-33.63
-0.38,0.06,0.82,-7.64,12.22,-34.43
-0.39,0.07,0.83,-8.15,14.71,-34.93
-0.4,0.07,0.82,-8.75,16.3,-34.92
-0.41,0.07,0.81,-9.5,17.06,-34.47
-0.41,0.05,0.81,-10.24,17.11,-33.86
-0.41,0.05,0.81,-10.24,17.11,-33.86
-0.4,0.04,0.8,-10.79,16.61,-33.15
-0.39,0.05,0.8,-11.06,15.79,-32.31
-0.4,0.07,0.81,-11.01,14.86,-31.53
-0.4,0.08,0.81,-10.76,13.94,-31.02
-0.38,0.09,0.83,-10.55,13.09,-30.7
-0.38,0.09,0.83,-10.55,13.09,-30.7
-0.36,0.1,0.83,-10.6,12.5,-30.35
-0.35,0.09,0.83,-10.91,12.32,-29.86
-0.34,0.08,0.82,-11.38,12.55,-29.25
-0.33,0.07,0.81,-11.85,13.28,-28.46
-0.33,0.07,0.81,-12.16,14.46,-27.48
-0.33,0.06,0.81,-12.16,14.46,-27.48
-0.33,0.04,0.81,-12.18,16.0,-26.2
-0.33,0.03,0.8,-11.85,17.84,-24.54
-0.34,0.02,0.79,-11.03,19.93,-22.48
-0.35,-0.0,0.79,-9.5,22.27,-20.12
-0.35,-0.0,0.79,-7.25,24.72,-17.42
-0.35,-0.0,0.79,-7.25,24.72,-17.42
-0.36,0.01,0.8,-4.39,27.23,-14.46
-0.36,0.02,0.82,-1.12,29.79,-11.39
-0.37,0.03,0.83,2.3,32.26,-8.17
-0.39,0.04,0.83,5.68,34.62,-4.81
-0.39,0.04,0.83,5.68,34.62,-4.81
-0.42,0.05,0.83,8.97,36.89,-1.48
-0.45,0.06,0.84,12.16,39.04,1.74
-0.49,0.08,0.85,15.24,40.92,4.78
-0.52,0.09,0.85,18.16,42.35,7.56
-0.55,0.11,0.86,20.79,43.3,10.04
-0.55,0.11,0.86,20.79,43.3,10.04
-0.57,0.13,0.86,23.0,43.67,12.23
-0.57,0.14,0.87,24.7,43.54,14.17
-0.57,0.15,0.87,25.88,43.25,15.9
-0.56,0.14,0.86,26.57,42.94,17.54
-0.56,0.14,0.84,26.82,42.73,19.04
-0.56,0.14,0.84,26.82,42.73,19.04
-0.57,0.13,0.83,26.84,42.93,20.12
-0.58,0.12,0.81,26.95,43.64,20.6
-0.58,0.12,0.81,27.3,44.65,20.66
-0.58,0.13,0.81,27.89,45.64,20.6
-0.58,0.15,0.83,28.46,46.38,20.57
-0.58,0.15,0.83,28.46,46.38,20.57
-0.59,0.16,0.83,28.71,46.67,20.64
-0.6,0.16,0.83,28.54,46.13,20.84
-0.61,0.16,0.83,28.01,44.66,21.17
-0.61,0.16,0.83,27.22,42.3,21.56
-0.61,0.15,0.83,26.21,39.22,21.96
-0.61,0.15,0.83,26.21,39.22,21.96
-0.62,0.14,0.83,25.0,35.59,22.26
-0.63,0.14,0.81,23.71,31.51,22.36
-0.64,0.13,0.81,22.37,27.22,22.05
-0.63,0.12,0.81,20.94,22.98,21.0
-0.61,0.12,0.8,19.4,19.21,19.34
-0.61,0.12,0.8,19.4,19.21,19.34
-0.6,0.14,0.81,17.69,15.91,17.44
-0.61,0.16,0.82,15.67,13.08,15.25
-0.61,0.17,0.83,13.02,10.65,12.79
-0.6,0.16,0.83,9.56,8.43,10.2
-0.6,0.13,0.81,5.61,6.29,7.6
-0.6,0.13,0.81,5.61,6.29,7.6
-0.59,0.11,0.8,1.63,4.15,5.12
-0.58,0.08,0.78,-2.04,1.99,2.74
-0.57,0.06,0.76,-5.16,-0.09,0.42
-0.56,0.04,0.76,-7.53,-1.93,-1.75
-0.55,0.03,0.75,-9.14,-3.5,-3.7
-0.55,0.03,0.75,-9.14,-3.5,-3.7
-0.54,0.03,0.75,-10.11,-4.74,-5.33
-0.53,0.03,0.76,-10.56,-5.82,-6.67
-0.54,0.04,0.76,-10.66,-6.95,-7.7
-0.56,0.05,0.77,-10.57,-8.28,-8.41
-0.58,0.05,0.77,-10.48,-10.08,-8.99
-0.58,0.05,0.77,-10.48,-10.08,-8.99
-0.6,0.05,0.76,-10.4,-12.23,-9.62
-0.6,0.04,0.76,-10.18,-14.51,-10.56
-0.59,0.04,0.76,-9.89,-16.85,-11.91
-0.58,0.05,0.76,-9.55,-19.01,-13.55
-0.58,0.08,0.77,-9.23,-21.02,-15.3
-0.58,0.08,0.77,-9.23,-21.02,-15.3
-0.59,0.1,0.79,-9.21,-22.98,-17.09
-0.6,0.11,0.81,-9.91,-25.04,-18.83
-0.6,0.12,0.79,-11.42,-27.32,-20.48
-0.6,0.11,0.79,-13.56,-29.72,-22.12
-0.6,0.09,0.78,-15.96,-32.09,-23.95
-0.6,0.09,0.78,-15.96,-32.09,-23.95
-0.59,0.09,0.78,-18.44,-34.27,-25.94
-0.58,0.09,0.78,-20.97,-36.27,-27.95
-0.57,0.09,0.78,-23.54,-38.03,-29.93
-0.56,0.08,0.78,-26.1,-39.6,-31.76
-0.54,0.07,0.77,-28.68,-40.97,-33.36
-0.54,0.07,0.77,-28.68,-40.97,-33.36
-0.52,0.05,0.76,-31.1,-42.02,-34.69
-0.51,0.03,0.76,-33.15,-42.69,-35.8
-0.51,0.02,0.76,-34.77,-42.99,-36.73
-0.52,0.01,0.77,-35.92,-43.19,-37.47
-0.54,0.02,0.78,-36.7,-43.58,-38.17
-0.54,0.02,0.78,-36.7,-43.58,-38.17
-0.56,0.03,0.8,-37.37,-44.5,-39.04
-0.54,0.04,0.8,-38.2,-46.0,-40.07
-0.52,0.04,0.81,-39.31,-47.78,-41.25
-0.48,0.03,0.83,-40.75,-49.37,-42.51
-0.46,0.03,0.83,-42.68,-50.39,-43.63
-0.46,0.03,0.83,-42.68,-50.39,-43.63
-0.44,0.02,0.82,-45.08,-50.79,-44.48
-0.43,0.0,0.82,-47.72,-50.45,-45.1
-0.45,-0.02,0.81,-50.44,-49.45,-45.64
-0.45,-0.04,0.81,-53.02,-48.0,-46.25
-0.45,-0.05,0.8,-55.29,-46.28,-47.0
-0.45,-0.05,0.8,-55.29,-46.28,-47.0
-0.44,-0.06,0.8,-57.24,-44.34,-47.99
-0.43,-0.06,0.8,-59.0,-42.06,-49.31
-0.42,-0.06,0.81,-60.66,-39.55,-51.05
-0.39,-0.05,0.81,-62.38,-36.9,-52.94
-0.37,-0.05,0.82,-64.36,-34.15,-54.57
-0.37,-0.05,0.82,-64.36,-34.15,-54.57
-0.35,-0.05,0.82,-66.88,-31.34,-55.62
-0.33,-0.07,0.81,-69.88,-28.43,-56.15
-0.31,-0.11,0.8,-73.09,-25.32,-56.13
-0.3,-0.16,0.79,-76.28,-22.02,-55.32
-0.29,-0.2,0.78,-79.23,-18.63,-53.71
-0.29,-0.2,0.78,-79.23,-18.63,-53.71
-0.31,-0.25,0.77,-81.7,-15.19,-51.52
-0.33,-0.3,0.76,-83.5,-11.9,-48.99
-0.34,-0.33,0.75,-84.43,-8.94,-46.39
-0.35,-0.36,0.74,-84.27,-6.44,-43.78
-0.35,-0.37,0.75,-82.98,-4.41,-41.17
-0.35,-0.37,0.75,-82.98,-4.41,-41.17
-0.36,-0.36,0.78,-80.77,-2.92,-38.4
-0.37,-0.34,0.79,-78.16,-2.02,-35.45
-0.38,-0.33,0.81,-75.7,-1.62,-32.46
-0.38,-0.33,0.8,-73.64,-1.5,-29.62
-0.39,-0.35,0.79,-71.86,-1.33,-27.07
-0.39,-0.35,0.79,-71.86,-1.33,-27.07
-0.4,-0.35,0.78,-70.1,-1.03,-24.91
-0.4,-0.34,0.78,-68.31,-0.48,-23.24
-0.39,-0.34,0.79,-66.59,0.45,-21.99
-0.38,-0.35,0.79,-65.06,1.87,-20.97
-0.39,-0.35,0.79,-63.73,3.73,-20.08
-0.39,-0.35,0.79,-63.73,3.73,-20.08
-0.41,-0.36,0.78,-62.45,5.79,-19.22
-0.43,-0.37,0.78,-61.03,7.7,-18.32
-0.45,-0.36,0.78,-59.37,9.13,-17.31
-0.45,-0.34,0.79,-57.6,9.92,-16.37
-0.45,-0.34,0.78,-55.86,10.17,-15.61
-0.45,-0.34,0.78,-55.86,10.17,-15.61
-0.44,-0.34,0.79,-54.24,10.04,-14.87
-0.44,-0.34,0.79,-52.75,9.75,-14.03
-0.45,-0.33,0.78,-51.36,9.31,-13.16
-0.46,-0.33,0.78,-50.12,8.69,-12.39
-0.45,-0.33,0.77,-48.99,7.95,-11.86
-0.45,-0.33,0.77,-48.99,7.95,-11.86
-0.44,-0.33,0.77,-47.92,7.3,-11.57
-0.42,-0.33,0.77,-46.9,6.92,-11.44
-0.41,-0.33,0.78,-46.04,6.96,-11.26
-0.42,-0.32,0.78,-45.42,7.48,-10.99
-0.44,-0.32,0.78,-45.06,8.3,-10.73
-0.44,-0.32,0.78,-45.06,8.3,-10.73
-0.46,-0.32,0.77,-44.87,9.27,-10.54
-0.46,-0.33,0.77,-44.7,10.21,-10.46
-0.46,-0.33,0.77,-44.51,11.09,-10.44
-0.47,-0.33,0.78,-44.3,11.8,-10.31
-0.49,-0.32,0.78,-44.05,12.14,-10.15
-0.49,-0.32,0.78,-44.05,12.14,-10.15
-0.5,-0.31,0.78,-43.87,11.86,-10.07
-0.5,-0.31,0.79,-43.88,10.79,-10.09
-0.49,-0.31,0.79,-44.13,9.16,-10.11
-0.48,-0.31,0.79,-44.66,7.2,-10.04
-0.48,-0.32,0.79,-45.52,4.99,-9.88
-0.48,-0.32,0.79,-45.52,4.99,-9.88
-0.48,-0.33,0.78,-46.6,2.6,-9.61
-0.47,-0.35,0.77,-47.77,0.13,-9.33
-0.46,-0.37,0.76,-48.83,-2.21,-9.14
-0.45,-0.39,0.75,-49.57,-4.24,-9.0
-0.44,-0.4,0.75,-49.79,-5.96,-8.64
-0.44,-0.4,0.75,-49.79,-5.96,-8.64
-0.45,-0.39,0.76,-49.51,-7.55,-7.77
-0.47,-0.38,0.78,-49.06,-9.13,-6.4
-0.48,-0.39,0.78,-48.81,-10.94,-4.78
-0.49,-0.41,0.77,-48.63,-13.08,-3.02
-0.5,-0.43,0.77,-48.12,-15.54,-1.14
-0.5,-0.43,0.77,-48.12,-15.54,-1.14
-0.53,-0.45,0.76,-47.19,-18.36,0.65
-0.55,-0.45,0.76,-45.82,-21.59,2.02
-0.54,-0.45,0.75,-43.97,-25.07,2.83
-0.53,-0.45,0.76,-41.61,-28.77,3.15
-0.51,-0.43,0.76,-38.9,-32.61,3.28
-0.51,-0.43,0.76,-38.9,-32.61,3.28
-0.48,-0.41,0.78,-36.22,-36.6,3.48
-0.46,-0.4,0.79,-33.77,-40.84,4.05
-0.44,-0.37,0.82,-31.51,-45.79,5.6
-0.46,-0.34,0.84,-29.81,-51.72,8.61
-0.49,-0.33,0.86,-29.33,-58.74,12.82
-0.49,-0.33,0.86,-29.33,-58.74,12.82
-0.51,-0.35,0.84,-30.23,-66.78,17.5
-0.53,-0.4,0.81,-31.8,-75.63,21.94
-0.54,-0.46,0.78,-33.04,-85.02,25.71
-0.54,-0.51,0.75,-33.42,-94.38,28.29
-0.52,-0.56,0.72,-32.48,-103.31,29.34
-0.52,-0.56,0.72,-32.48,-103.31,29.34
-0.48,-0.58,0.69,-29.68,-111.29,28.83
-0.44,-0.57,0.67,-24.82,-117.89,26.93
-0.39,-0.54,0.7,-18.48,-123.31,24.11
-0.33,-0.49,0.74,-11.63,-127.44,20.9
-0.27,-0.46,0.79,-5.27,-130.14,17.59
-0.27,-0.46,0.79,-5.27,-130.14,17.59
-0.23,-0.44,0.81,0.06,-131.14,14.26
-0.19,-0.44,0.81,4.26,-130.44,11.25
-0.17,-0.44,0.8,7.42,-128.32,8.85
-0.16,-0.45,0.8,9.94,-125.23,7.18
-0.17,-0.47,0.79,12.33,-121.65,6.07
-0.17,-0.47,0.79,12.33,-121.65,6.07
-0.19,-0.47,0.77,14.86,-118.01,5.49
-0.2,-0.48,0.76,17.77,-114.84,5.37
-0.24,-0.48,0.75,21.17,-112.81,5.6
-0.26,-0.48,0.75,25.45,-112.24,5.88
-0.28,-0.46,0.76,30.56,-113.41,6.18
-0.28,-0.46,0.76,30.56,-113.41,6.18
-0.3,-0.44,0.78,36.0,-116.5,6.75
-0.31,-0.41,0.8,41.28,-121.43,7.44
-0.31,-0.38,0.81,46.16,-127.67,7.66
-0.26,-0.36,0.82,50.37,-134.38,6.94
-0.19,-0.34,0.82,53.8,-140.26,5.12
-0.19,-0.34,0.82,53.8,-140.26,5.12
-0.1,-0.32,0.85,56.85,-143.83,2.16
0.0,-0.31,0.88,59.53,-144.3,-1.49
0.08,-0.29,0.9,61.59,-141.54,-5.18
0.12,-0.27,0.91,62.75,-135.81,-8.25
0.12,-0.26,0.92,62.92,-127.77,-10.4
0.12,-0.26,0.92,62.92,-127.77,-10.4
0.08,-0.26,0.93,62.12,-118.27,-11.83
0.03,-0.29,0.91,60.62,-108.36,-12.92
-0.02,-0.31,0.87,58.85,-99.16,-13.84
-0.07,-0.31,0.85,57.4,-91.47,-14.66
-0.1,-0.32,0.85,56.6,-85.74,-15.44
-0.1,-0.32,0.85,56.6,-85.74,-15.44
-0.11,-0.31,0.86,56.5,-82.16,-16.18
-0.11,-0.31,0.86,57.04,-80.65,-16.86
-0.1,-0.3,0.87,58.05,-81.01,-17.45
-0.09,-0.28,0.88,59.29,-83.03,-17.93
-0.06,-0.27,0.89,60.55,-86.11,-18.47
-0.06,-0.27,0.89,60.55,-86.11,-18.47
-0.02,-0.25,0.9,61.6,-89.47,-19.29
0.05,-0.23,0.93,62.35,-92.0,-20.58
0.13,-0.2,0.95,62.76,-92.72,-22.32
0.2,-0.17,0.96,62.63,-90.95,-24.49
0.24,-0.15,0.95,61.8,-86.5,-26.86
0.24,-0.15,0.95,61.8,-86.5,-26.86
0.27,-0.14,0.95,60.21,-79.74,-29.04
0.27,-0.14,0.94,57.86,-71.09,-30.74
0.24,-0.15,0.93,54.78,-61.09,-31.88
0.2,-0.15,0.91,51.32,-50.51,-32.71
0.15,-0.17,0.88,47.96,-40.07,-33.47
0.15,-0.17,0.88,47.96,-40.07,-33.47
0.11,-0.19,0.86,45.27,-30.61,-33.92
0.08,-0.19,0.84,43.43,-22.85,-33.68
0.05,-0.19,0.85,42.51,-17.26,-32.57
0.03,-0.19,0.86,42.36,-13.91,-30.81
-0.01,-0.18,0.88,42.83,-12.55,-28.71
-0.01,-0.18,0.88,42.83,-12.55,-28.71
-0.03,-0.18,0.9,43.76,-12.92,-26.77
-0.03,-0.16,0.91,44.98,-14.71,-25.32
-0.01,-0.14,0.94,46.22,-17.57,-24.33
0.03,-0.11,0.96,47.14,-20.96,-23.59
0.07,-0.09,0.98,47.34,-24.28,-22.93
0.07,-0.09,0.98,47.34,-24.28,-22.93
0.11,-0.08,0.99,46.69,-26.97,-22.35
0.14,-0.07,0.99,45.25,-28.52,-21.94
0.17,-0.09,0.99,43.16,-28.55,-21.76
0.19,-0.1,0.98,40.63,-27.13,-21.66
0.19,-0.12,0.97,37.93,-24.57,-21.36
0.19,-0.12,0.97,37.93,-24.57,-21.36
0.16,-0.14,0.96,35.39,-21.3,-20.72
0.13,-0.16,0.94,33.3,-17.83,-19.9
0.11,-0.18,0.93,31.9,-14.64,-18.99
0.09,-0.2,0.92,31.5,-12.16,-17.9
0.07,-0.2,0.92,32.29,-10.66,-16.61
0.07,-0.2,0.92,32.29,-10.66,-16.61
0.04,-0.19,0.92,34.23,-10.36,-15.13
0.02,-0.18,0.93,37.02,-11.49,-13.48
0.01,-0.16,0.94,40.34,-14.23,-11.65
0.0,-0.14,0.95,43.88,-18.57,-9.62
-0.0,-0.13,0.95,47.43,-24.38,-7.34
-0.0,-0.13,0.95,47.43,-24.38,-7.34
-0.01,-0.11,0.96,50.85,-31.44,-4.88
0.0,-0.09,0.97,54.01,-39.39,-2.54
0.03,-0.07,0.97,56.78,-47.73,-0.6
0.07,-0.05,0.98,59.05,-55.83,0.89
0.13,-0.04,1.0,60.64,-62.95,2.09
0.13,-0.04,1.0,60.64,-62.95,2.09
0.19,-0.02,1.02,61.39,-68.42,2.83
0.26,0.0,1.03,61.28,-71.62,2.96
0.3,0.01,1.03,60.33,-72.37,2.45
0.34,0.0,1.01,58.64,-71.0,1.68
0.34,-0.01,1.0,56.36,-68.04,1.15
0.34,-0.01,1.0,56.36,-68.04,1.15
0.32,-0.02,0.98,53.74,-64.12,1.13
0.28,-0.03,0.96,50.96,-59.81,1.61
0.24,-0.03,0.95,48.27,-55.75,2.22
0.22,-0.03,0.94,45.81,-52.26,2.67
0.22,-0.03,0.94,43.66,-49.4,2.91
0.22,-0.03,0.94,43.66,-49.4,2.91
0.24,-0.03,0.94,41.88,-47.12,3.06
0.26,-0.02,0.94,40.44,-45.25,3.3
0.27,-0.02,0.95,39.23,-43.7,3.93
0.28,-0.02,0.95,38.13,-42.31,5.04
0.29,-0.01,0.96,37.0,-40.91,6.52
0.29,-0.01,0.96,37.0,-40.91,6.52
0.29,-0.01,0.96,35.84,-39.37,8.13
0.3,-0.02,0.97,34.69,-37.58,9.72
0.3,-0.03,0.97,33.52,-35.49,11.37
0.29,-0.03,0.97,32.35,-33.06,13.0
0.29,-0.03,0.97,31.21,-30.16,14.14
0.27,-0.04,0.97,31.21,-30.16,14.14
0.27,-0.04,0.96,30.21,-26.76,14.22
0.29,-0.06,0.95,29.43,-22.79,13.15
0.31,-0.09,0.94,28.93,-18.25,11.37
0.32,-0.09,0.94,28.83,-13.09,9.37
0.32,-0.09,0.94,29.17,-7.29,7.2
0.33,-0.09,0.94,29.17,-7.29,7.2
0.33,-0.09,0.93,29.93,-0.91,4.75
0.33,-0.08,0.94,31.11,5.92,2.01
0.31,-0.08,0.93,32.64,13.0,-0.78
0.3,-0.07,0.93,34.34,19.91,-3.23
0.3,-0.07,0.93,34.34,19.91,-3.23
0.27,-0.06,0.93,36.15,26.21,-5.1
0.25,-0.05,0.93,38.14,31.56,-6.31
0.23,-0.03,0.93,40.35,35.7,-6.79
0.21,-0.01,0.94,42.7,38.54,-6.46
0.19,0.01,0.95,44.97,40.15,-5.41
0.19,0.01,0.95,44.97,40.15,-5.41
0.16,0.02,0.96,46.98,40.68,-3.89
0.14,0.04,0.98,48.59,40.35,-2.43
0.11,0.07,0.98,49.72,39.6,-1.75
0.1,0.08,0.99,50.44,38.74,-2.55
0.12,0.08,0.98,50.97,37.85,-4.83
0.12,0.08,0.98,50.97,37.85,-4.83
0.15,0.07,0.98,51.4,36.85,-7.72
0.16,0.07,0.98,51.81,35.53,-10.21
0.17,0.08,0.99,52.16,33.92,-11.87
0.17,0.1,1.0,52.41,32.17,-12.91
0.16,0.12,1.0,52.48,30.42,-13.73
0.16,0.12,1.0,52.48,30.42,-13.73
0.17,0.12,1.01,52.38,28.85,-14.55
0.17,0.11,1.01,52.15,27.54,-15.32
0.16,0.11,1.0,51.9,26.37,-15.88
0.15,0.11,1.0,51.85,25.21,-16.22
0.15,0.1,0.98,52.23,23.85,-16.31
0.15,0.1,0.98,52.23,23.85,-16.31
0.15,0.08,0.98,53.22,22.12,-16.01
0.15,0.06,0.98,54.9,20.12,-15.07
0.15,0.04,0.97,57.38,18.01,-13.64
0.14,0.04,0.96,60.9,15.95,-12.25
0.13,0.05,0.95,65.66,14.22,-11.35
0.13,0.05,0.95,65.66,14.22,-11.35
0.13,0.09,0.94,71.63,12.94,-11.1
0.12,0.15,0.95,78.47,12.16,-11.6
0.11,0.22,0.97,85.4,11.85,-12.74
0.12,0.29,0.99,91.58,11.94,-14.42
0.13,0.35,1.0,96.51,12.45,-16.41
0.13,0.35,1.0,96.51,12.45,-16.41
0.15,0.39,1.01,100.04,13.23,-18.37
0.16,0.42,1.02,102.03,13.98,-19.79
0.16,0.45,1.02,102.3,14.32,-20.07
0.14,0.47,1.02,100.77,13.97,-18.9
0.11,0.49,1.03,97.42,12.78,-16.62
