ax,ay,az,gx,gy,gz
-0.7,-0.07,0.68,37.41,0.55,4.92
-0.7,-0.07,0.68,38.64,2.13,4.72
-0.69,-0.08,0.67,40.13,3.5,4.98
-0.69,-0.07,0.66,42.04,4.73,5.68
-0.7,-0.06,0.67,44.43,5.71,6.85
-0.7,-0.06,0.67,44.43,5.71,6.85
-0.71,-0.03,0.68,47.0,6.49,8.34
-0.73,-0.01,0.69,49.51,7.03,9.85
-0.73,0.01,0.7,51.78,7.43,11.18
-0.73,0.04,0.71,53.66,7.83,12.24
-0.74,0.07,0.72,54.96,8.32,13.0
-0.74,0.07,0.72,54.96,8.32,13.0
-0.74,0.09,0.74,55.42,9.0,13.48
-0.75,0.12,0.75,54.84,9.86,13.6
-0.75,0.13,0.75,53.1,10.94,13.38
-0.76,0.13,0.75,50.15,12.3,12.73
-0.75,0.11,0.73,46.38,13.95,11.68
-0.75,0.11,0.73,46.38,13.95,11.68
-0.75,0.09,0.71,42.28,15.8,10.31
-0.76,0.08,0.7,38.32,17.75,8.75
-0.77,0.07,0.7,34.61,19.64,7.04
-0.77,0.06,0.69,31.24,21.29,5.24
-0.77,0.05,0.69,28.29,22.53,3.37
-0.77,0.05,0.69,28.29,22.53,3.37
-0.77,0.04,0.68,25.91,23.36,1.64
-0.76,0.03,0.68,24.18,23.86,0.08
-0.74,0.03,0.68,23.12,24.09,-1.26
-0.73,0.05,0.68,22.53,24.16,-2.23
-0.73,0.05,0.69,22.15,24.12,-2.67
-0.73,0.05,0.69,22.15,24.12,-2.67
-0.73,0.05,0.68,21.83,23.98,-2.54
-0.74,0.05,0.68,21.56,23.64,-1.86
-0.75,0.05,0.68,21.45,23.05,-0.71
-0.75,0.05,0.67,21.54,22.29,0.73
-0.75,0.05,0.67,21.83,21.49,2.28
-0.75,0.05,0.67,21.83,21.49,2.28
-0.75,0.05,0.68,22.35,20.94,3.79
-0.76,0.06,0.68,22.96,20.67,5.14
-0.77,0.08,0.69,23.52,20.55,6.28
-0.78,0.09,0.68,23.83,20.55,7.17
-0.78,0.09,0.68,23.69,20.89,7.6
-0.78,0.09,0.68,23.69,20.89,7.6
-0.77,0.09,0.67,23.17,21.83,7.4
-0.77,0.09,0.67,22.37,23.29,6.66
-0.78,0.1,0.67,21.25,24.99,5.59
-0.79,0.11,0.68,19.84,26.64,4.4
-0.81,0.11,0.67,18.16,27.92,3.11
-0.81,0.11,0.67,18.16,27.92,3.11
-0.82,0.1,0.67,16.3,28.63,1.83
-0.83,0.09,0.66,14.44,28.72,0.57
-0.82,0.07,0.64,12.84,28.35,-0.82
-0.81,0.06,0.64,11.76,27.6,-2.23
-0.81,0.07,0.64,11.15,26.48,-3.5
-0.81,0.07,0.64,11.15,26.48,-3.5
-0.81,0.09,0.65,10.76,25.02,-4.54
-0.81,0.1,0.67,10.35,23.25,-5.38
-0.81,0.1,0.67,9.73,21.14,-5.99
-0.8,0.1,0.67,8.95,18.64,-6.26
-0.78,0.11,0.67,7.99,15.92,-6.19
-0.78,0.11,0.67,7.99,15.92,-6.19
-0.78,0.12,0.68,6.84,13.43,-5.86
-0.79,0.11,0.68,5.36,11.52,-5.5
-0.8,0.1,0.66,3.49,10.12,-5.26
-0.79,0.08,0.64,1.41,9.09,-5.21
-0.79,0.06,0.63,-0.44,8.53,-5.25
-0.79,0.06,0.63,-0.44,8.53,-5.25
-0.78,0.04,0.63,-1.8,8.55,-5.36
-0.78,0.04,0.61,-2.56,9.0,-5.48
-0.79,0.04,0.61,-2.73,9.7,-5.5
-0.79,0.04,0.62,-2.35,10.54,-5.32
-0.79,0.05,0.62,-1.55,11.28,-4.93
-0.79,0.05,0.62,-1.55,11.28,-4.93
-0.8,0.05,0.61,-0.39,11.89,-4.35
-0.81,0.05,0.61,1.09,12.34,-3.69
-0.81,0.05,0.6,2.85,12.7,-3.13
-0.81,0.07,0.61,4.86,12.93,-2.58
-0.81,0.09,0.62,6.82,13.05,-2.0
-0.81,0.09,0.62,6.82,13.05,-2.0
-0.81,0.1,0.63,8.53,13.18,-1.42
-0.82,0.1,0.64,9.83,13.36,-0.88
-0.83,0.11,0.64,10.66,13.46,-0.42
-0.84,0.12,0.64,11.09,13.28,0.0
-0.85,0.12,0.65,11.16,12.79,0.41
-0.85,0.12,0.65,11.16,12.79,0.41
-0.85,0.13,0.65,10.79,11.96,0.8
-0.85,0.13,0.66,9.95,10.8,1.09
-0.84,0.13,0.66,8.7,9.42,1.18
-0.84,0.11,0.65,7.19,8.03,1.02
-0.83,0.1,0.64,5.59,6.69,0.75
-0.83,0.1,0.64,5.59,6.69,0.75
-0.81,0.09,0.64,4.0,5.5,0.39
-0.79,0.08,0.64,2.46,4.7,0.06
-0.79,0.06,0.63,1.05,4.4,-0.19
-0.79,0.05,0.62,-0.01,4.49,-0.31
-0.81,0.04,0.61,-0.47,4.79,-0.25
-0.81,0.04,0.61,-0.47,4.79,-0.25
-0.82,0.05,0.62,-0.31,5.07,0.08
-0.83,0.06,0.62,0.32,5.12,0.65
-0.83,0.07,0.63,1.11,4.81,1.42
-0.84,0.08,0.64,1.9,4.17,2.3
-0.84,0.09,0.64,2.68,3.31,3.26
-0.84,0.09,0.64,2.68,3.31,3.26
-0.83,0.1,0.64,3.33,2.24,4.23
-0.84,0.11,0.64,3.82,1.08,5.17
-0.84,0.13,0.65,4.13,-0.25,6.17
-0.84,0.14,0.66,4.15,-1.85,7.35
-0.85,0.15,0.67,3.59,-3.72,8.67
-0.85,0.15,0.67,3.59,-3.72,8.67
-0.87,0.15,0.67,2.31,-5.76,9.89
-0.87,0.14,0.66,0.58,-7.87,10.74
-0.87,0.13,0.66,-1.28,-9.92,11.19
-0.86,0.12,0.66,-3.17,-11.82,11.34
-0.85,0.11,0.66,-5.19,-13.53,11.18
-0.85,0.11,0.66,-5.19,-13.53,11.18
-0.84,0.1,0.66,-7.26,-15.08,10.83
-0.83,0.09,0.65,-9.21,-16.44,10.45
-0.84,0.07,0.64,-10.79,-17.72,10.08
-0.83,0.04,0.63,-11.86,-18.78,9.48
-0.81,0.03,0.62,-12.28,-19.56,8.59
-0.81,0.03,0.62,-12.28,-19.56,8.59
-0.79,0.03,0.62,-12.02,-19.94,7.59
-0.78,0.04,0.63,-11.19,-19.71,6.65
-0.77,0.04,0.63,-10.04,-18.93,5.82
-0.76,0.05,0.63,-8.76,-17.65,5.11
-0.76,0.05,0.63,-7.42,-16.02,4.58
-0.76,0.05,0.63,-7.42,-16.02,4.58
-0.76,0.05,0.64,-6.1,-14.16,4.34
-0.76,0.05,0.64,-4.82,-12.2,4.3
-0.77,0.05,0.64,-3.56,-10.18,4.35
-0.78,0.05,0.64,-2.28,-8.2,4.37
-0.79,0.07,0.64,-1.03,-6.38,4.37
-0.79,0.07,0.64,-1.03,-6.38,4.37
-0.79,0.08,0.65,0.09,-4.8,4.31
-0.8,0.09,0.65,0.91,-3.54,4.19
-0.81,0.1,0.66,1.38,-2.64,3.95
-0.81,0.1,0.65,1.49,-2.07,3.57
-0.82,0.09,0.65,1.3,-1.78,2.97
-0.82,0.09,0.65,1.3,-1.78,2.97
-0.81,0.08,0.65,0.91,-1.52,2.06
-0.8,0.08,0.65,0.47,-1.14,0.92
-0.79,0.08,0.65,-0.01,-0.58,-0.32
-0.79,0.08,0.65,-0.6,0.08,-1.52
-0.79,0.07,0.64,-1.24,0.75,-2.61
-0.79,0.07,0.64,-1.24,0.75,-2.61
-0.78,0.07,0.64,-1.86,1.4,-3.53
-0.78,0.06,0.64,-2.3,2.06,-4.26
-0.78,0.06,0.63,-2.48,2.61,-4.75
-0.79,0.06,0.64,-2.4,2.96,-4.97
-0.79,0.07,0.64,-2.14,3.04,-4.98
-0.79,0.07,0.64,-2.14,3.04,-4.98
-0.79,0.09,0.65,-1.78,2.79,-4.72
-0.8,0.11,0.66,-1.47,2.31,-4.19
-0.81,0.11,0.66,-1.43,1.63,-3.48
-0.8,0.1,0.65,-1.69,0.81,-2.73
-0.79,0.08,0.64,-2.02,0.08,-1.96
-0.79,0.08,0.64,-2.02,0.08,-1.96
-0.79,0.07,0.63,-2.09,-0.31,-1.22
-0.79,0.07,0.63,-1.78,-0.27,-0.59
-0.8,0.07,0.63,-1.17,0.1,-0.05
-0.8,0.08,0.63,-0.41,0.66,0.38
-0.81,0.08,0.63,0.41,1.31,0.67
-0.81,0.08,0.63,0.41,1.31,0.67
-0.81,0.09,0.64,1.26,2.03,0.81
-0.82,0.11,0.65,2.01,2.72,0.85
-0.83,0.12,0.65,2.53,3.17,0.82
-0.83,0.13,0.66,2.78,3.36,0.7
-0.83,0.14,0.66,2.72,3.19,0.61
-0.83,0.14,0.66,2.72,3.19,0.61
-0.83,0.14,0.67,2.3,2.69,0.64
-0.83,0.15,0.68,1.48,1.82,0.8
-0.83,0.13,0.67,0.25,0.62,1.07
-0.82,0.11,0.66,-1.07,-0.76,1.42
-0.81,0.09,0.66,-2.18,-2.14,1.8
-0.81,0.09,0.66,-2.18,-2.14,1.8
-0.8,0.08,0.65,-2.94,-3.36,2.09
-0.79,0.06,0.64,-3.35,-4.2,2.3
-0.78,0.05,0.63,-3.35,-4.55,2.35
-0.77,0.05,0.62,-2.84,-4.42,2.29
-0.77,0.06,0.63,-1.83,-3.99,2.26
-0.77,0.06,0.63,-1.83,-3.99,2.26
-0.78,0.08,0.64,-0.55,-3.35,2.27
-0.78,0.1,0.65,0.6,-2.67,2.25
-0.78,0.11,0.66,1.4,-2.02,2.18
-0.78,0.11,0.66,1.76,-1.37,2.05
-0.79,0.11,0.66,1.82,-0.81,1.94
-0.79,0.11,0.66,1.82,-0.81,1.94
-0.79,0.11,0.67,1.59,-0.45,1.9
-0.8,0.11,0.66,1.11,-0.37,1.91
-0.8,0.1,0.66,0.52,-0.69,2.0
-0.8,0.1,0.66,-0.08,-1.32,2.15
-0.8,0.1,0.66,-0.59,-2.1,2.28
-0.8,0.1,0.66,-0.59,-2.1,2.28
-0.79,0.1,0.65,-1.09,-2.89,2.35
-0.79,0.09,0.65,-1.56,-3.52,2.24
-0.79,0.09,0.64,-1.92,-3.91,1.92
-0.79,0.09,0.65,-2.16,-4.04,1.51
-0.79,0.09,0.65,-2.34,-3.91,1.04
-0.79,0.09,0.65,-2.34,-3.91,1.04
-0.79,0.1,0.66,-2.53,-3.52,0.54
-0.79,0.1,0.66,-2.79,-3.01,0.03
-0.78,0.09,0.66,-3.16,-2.4,-0.3
-0.78,0.08,0.66,-3.48,-1.77,-0.45
-0.78,0.08,0.66,-3.52,-1.06,-0.47
-0.79,0.06,0.64,-3.52,-1.06,-0.47
-0.79,0.06,0.64,-3.09,-0.37,-0.38
-0.8,0.07,0.64,-2.18,0.11,-0.16
-0.81,0.09,0.65,-1.04,0.34,0.16
-0.81,0.11,0.67,-0.02,0.35,0.57
-0.81,0.11,0.67,0.65,0.19,1.03
-0.81,0.12,0.68,0.65,0.19,1.03
-0.82,0.12,0.67,0.89,-0.09,1.44
-0.82,0.12,0.67,0.8,-0.41,1.72
-0.82,0.11,0.68,0.44,-0.7,1.74
-0.81,0.11,0.68,-0.12,-0.92,1.54
-0.81,0.11,0.68,-0.12,-0.92,1.54
-0.81,0.12,0.68,-0.86,-1.09,1.27
-0.81,0.11,0.68,-1.78,-1.33,1.02
-0.81,0.09,0.67,-2.78,-1.65,0.83
-0.81,0.08,0.66,-3.64,-2.04,0.58
-0.8,0.07,0.66,-4.16,-2.49,0.34
-0.8,0.07,0.66,-4.16,-2.49,0.34
-0.79,0.08,0.66,-4.3,-2.93,0.15
-0.79,0.09,0.67,-4.29,-3.31,0.08
-0.78,0.08,0.67,-4.3,-3.56,0.03
-0.78,0.08,0.66,-4.33,-3.59,-0.02
-0.78,0.09,0.67,-4.23,-3.51,-0.04
-0.78,0.09,0.67,-4.23,-3.51,-0.04
-0.79,0.1,0.68,-4.17,-3.44,0.13
-0.8,0.11,0.68,-4.4,-3.54,0.48
-0.8,0.11,0.68,-4.97,-3.87,0.86
-0.8,0.11,0.68,-5.7,-4.32,1.14
-0.8,0.11,0.69,-6.4,-4.75,1.3
-0.8,0.11,0.69,-6.4,-4.75,1.3
-0.81,0.13,0.69,-7.22,-5.2,1.38
-0.84,0.15,0.7,-8.42,-5.82,1.31
-0.91,0.21,0.72,-10.24,-7.03,0.6
-0.96,0.28,0.74,-12.86,-9.28,-1.42
-0.97,0.37,0.78,-16.9,-12.95,-4.9
-0.97,0.37,0.78,-16.9,-12.95,-4.9
-0.94,0.46,0.83,-23.32,-18.1,-9.25
-0.9,0.54,0.89,-33.2,-24.4,-14.01
-0.83,0.6,0.9,-47.33,-31.2,-18.93
-0.76,0.64,0.9,-65.76,-37.88,-23.6
-0.71,0.64,0.88,-88.19,-43.75,-27.48
-0.71,0.64,0.88,-88.19,-43.75,-27.48
-0.65,0.57,0.81,-114.29,-48.17,-30.58
-0.62,0.46,0.7,-142.88,-50.73,-32.99
-0.61,0.31,0.61,-171.58,-51.25,-35.03
-0.62,0.14,0.53,-198.26,-50.05,-36.93
-0.61,-0.02,0.45,-221.45,-47.45,-38.72
-0.61,-0.02,0.45,-221.45,-47.45,-38.72
-0.6,-0.17,0.38,-239.95,-43.95,-39.95
-0.62,-0.27,0.33,-252.86,-40.08,-40.07
-0.68,-0.29,0.32,-253.48,-36.66,-39.19
-0.75,-0.26,0.34,-253.48,-34.17,-38.06
-0.77,-0.2,0.4,-253.48,-32.83,-37.0
-0.77,-0.2,0.4,-253.48,-32.83,-37.0
-0.75,-0.14,0.49,-253.48,-32.79,-35.5
-0.7,-0.1,0.59,-249.92,-33.78,-33.05
-0.68,-0.09,0.66,-247.64,-34.91,-29.47
-0.69,-0.13,0.66,-247.84,-35.03,-25.59
-0.74,-0.25,0.58,-249.86,-33.65,-22.77
-0.74,-0.25,0.58,-249.86,-33.65,-22.77
-0.77,-0.41,0.48,-251.36,-30.96,-21.66
-0.75,-0.53,0.4,-250.11,-27.62,-21.48
-0.72,-0.59,0.38,-245.63,-24.3,-21.02
-0.7,-0.59,0.4,-238.24,-21.32,-19.72
-0.69,-0.58,0.41,-228.23,-18.4,-17.91
-0.69,-0.58,0.41,-228.23,-18.4,-17.91
-0.7,-0.6,0.41,-215.97,-15.46,-16.05
-0.7,-0.63,0.4,-201.8,-12.79,-14.15
-0.7,-0.64,0.41,-186.01,-10.61,-11.63
-0.71,-0.6,0.46,-169.56,-9.16,-8.08
-0.72,-0.57,0.5,-153.39,-8.25,-4.12
-0.72,-0.57,0.5,-153.39,-8.25,-4.12
-0.7,-0.56,0.52,-138.02,-7.37,-0.39
-0.69,-0.55,0.53,-123.92,-6.26,3.25
-0.68,-0.55,0.52,-111.34,-4.91,6.74
-0.67,-0.56,0.48,-99.85,-3.15,9.95
-0.68,-0.57,0.45,-88.66,-1.11,12.97
-0.68,-0.57,0.45,-88.66,-1.11,12.97
-0.7,-0.57,0.43,-77.36,0.84,15.72
-0.71,-0.55,0.44,-66.01,2.58,17.99
-0.7,-0.53,0.44,-54.74,4.04,19.66
-0.69,-0.51,0.46,-43.77,5.21,20.88
-0.7,-0.48,0.48,-33.5,6.09,21.88
-0.7,-0.48,0.48,-33.5,6.09,21.88
-0.7,-0.45,0.51,-24.48,6.68,22.59
-0.71,-0.41,0.52,-17.11,7.1,22.84
-0.72,-0.36,0.54,-11.55,7.39,22.55
-0.75,-0.32,0.56,-7.87,7.45,21.41
-0.75,-0.31,0.57,-6.26,7.18,19.37
-0.75,-0.31,0.57,-6.26,7.18,19.37
-0.74,-0.3,0.58,-6.72,6.58,16.76
-0.73,-0.31,0.58,-9.1,5.7,13.81
-0.72,-0.35,0.57,-12.97,4.59,10.71
-0.7,-0.39,0.54,-17.77,3.44,7.64
-0.68,-0.44,0.5,-22.67,2.32,4.82
-0.68,-0.44,0.5,-22.67,2.32,4.82
-0.67,-0.49,0.48,-26.84,1.4,2.4
-0.65,-0.53,0.46,-29.79,1.03,0.43
-0.64,-0.55,0.44,-31.17,1.29,-1.01
-0.65,-0.56,0.43,-30.81,2.02,-1.84
-0.67,-0.55,0.43,-28.93,2.91,-2.16
-0.67,-0.55,0.43,-28.93,2.91,-2.16
-0.68,-0.53,0.44,-25.9,3.72,-2.12
-0.7,-0.5,0.45,-22.18,4.36,-1.75
-0.7,-0.47,0.47,-18.17,4.97,-1.24
-0.7,-0.44,0.48,-14.05,5.54,-0.62
-0.72,-0.41,0.49,-10.13,5.97,0.2
-0.72,-0.41,0.49,-10.13,5.97,0.2
-0.74,-0.39,0.51,-6.9,6.15,1.07
-0.74,-0.38,0.52,-4.6,6.13,1.73
-0.74,-0.38,0.52,-3.21,6.12,2.02
-0.75,-0.38,0.51,-2.39,6.18,1.98
-0.77,-0.37,0.51,-1.8,6.28,1.57
-0.77,-0.37,0.51,-1.8,6.28,1.57
-0.78,-0.35,0.53,-1.48,6.29,0.86
-0.78,-0.33,0.54,-1.65,6.06,0.03
-0.77,-0.33,0.56,-2.64,5.54,-0.8
-0.76,-0.34,0.56,-4.54,4.86,-1.56
-0.75,-0.37,0.55,-7.13,4.23,-2.16
-0.75,-0.37,0.55,-7.13,4.23,-2.16
-0.73,-0.41,0.52,-9.87,3.85,-2.44
-0.72,-0.44,0.48,-12.06,3.94,-2.23
-0.72,-0.46,0.46,-13.06,4.52,-1.6
-0.75,-0.47,0.46,-12.65,5.43,-0.59
-0.78,-0.46,0.46,-11.03,6.33,0.52
-0.78,-0.46,0.46,-11.03,6.33,0.52
-0.79,-0.43,0.48,-8.64,6.91,1.5
-0.79,-0.4,0.51,-6.07,7.1,2.34
-0.79,-0.37,0.55,-4.05,6.97,3.03
-0.79,-0.35,0.57,-3.07,6.7,3.37
-0.78,-0.35,0.58,-3.39,6.34,3.46
-0.78,-0.35,0.58,-3.39,6.34,3.46
-0.77,-0.36,0.57,-5.14,5.95,3.31
-0.77,-0.39,0.55,-7.96,5.61,2.9
-0.76,-0.41,0.53,-11.04,5.46,2.19
-0.77,-0.44,0.52,-13.81,5.38,1.22
-0.78,-0.46,0.5,-16.12,5.19,0.08
-0.78,-0.46,0.5,-16.12,5.19,0.08
-0.77,-0.47,0.49,-17.93,4.73,-1.13
-0.75,-0.49,0.48,-19.24,4.09,-2.29
-0.73,-0.5,0.47,-19.84,3.51,-3.21
-0.72,-0.49,0.46,-19.59,3.11,-3.79
-0.73,-0.49,0.47,-18.57,2.88,-3.95
-0.73,-0.49,0.47,-18.57,2.88,-3.95
-0.73,-0.48,0.48,-17.24,2.71,-3.68
-0.73,-0.48,0.48,-15.9,2.59,-3.03
-0.72,-0.49,0.48,-14.53,2.62,-2.03
-0.73,-0.5,0.47,-13.0,2.82,-0.79
-0.74,-0.5,0.46,-11.05,3.22,0.53
-0.74,-0.5,0.46,-11.05,3.22,0.53
-0.75,-0.49,0.45,-8.57,3.82,1.73
-0.77,-0.48,0.46,-5.69,4.46,2.69
-0.78,-0.45,0.47,-2.75,5.04,3.41
-0.8,-0.4,0.48,-0.02,5.42,3.78
-0.81,-0.34,0.51,2.22,5.55,3.42
-0.81,-0.34,0.51,2.22,5.55,3.42
-0.83,-0.29,0.54,3.49,5.33,2.19
-0.83,-0.26,0.58,2.96,4.52,0.32
-0.82,-0.24,0.58,0.14,2.95,-1.9
-0.78,-0.27,0.58,-5.03,0.73,-4.22
-0.75,-0.33,0.55,-11.99,-1.72,-6.38
-0.75,-0.33,0.55,-11.99,-1.72,-6.38
-0.71,-0.41,0.5,-19.43,-3.88,-8.15
-0.7,-0.47,0.45,-25.96,-5.45,-9.43
-0.69,-0.52,0.42,-30.85,-6.42,-10.21
-0.68,-0.56,0.39,-33.87,-6.8,-10.59
-0.66,-0.59,0.37,-34.79,-6.5,-10.5
-0.66,-0.59,0.37,-34.79,-6.5,-10.5
-0.65,-0.6,0.35,-33.4,-5.56,-9.77
-0.65,-0.6,0.35,-29.79,-4.1,-8.27
-0.67,-0.57,0.37,-24.25,-2.33,-6.0
-0.7,-0.51,0.4,-17.51,-0.56,-3.23
-0.72,-0.46,0.44,-10.58,0.9,-0.32
-0.72,-0.46,0.44,-10.58,0.9,-0.32
-0.74,-0.41,0.47,-4.45,1.92,2.64
-0.75,-0.37,0.5,0.45,2.59,5.46
-0.76,-0.34,0.51,4.08,3.14,7.76
-0.78,-0.33,0.52,6.5,3.58,9.29
-0.79,-0.32,0.53,7.64,3.79,10.03
-0.79,-0.32,0.53,7.64,3.79,10.03
-0.79,-0.32,0.54,7.38,3.81,9.97
-0.77,-0.33,0.53,5.89,3.69,9.19
-0.75,-0.35,0.52,3.46,3.55,7.96
-0.74,-0.38,0.5,0.59,3.5,6.54
-0.73,-0.42,0.47,-2.05,3.61,5.2
-0.73,-0.42,0.47,-2.05,3.61,5.2
-0.73,-0.45,0.45,-4.04,3.77,4.15
-0.72,-0.47,0.44,-5.12,3.84,3.54
-0.72,-0.49,0.43,-5.16,3.72,3.5
-0.71,-0.49,0.43,-4.15,3.48,4.03
-0.7,-0.5,0.43,-2.2,3.24,4.98
-0.7,-0.5,0.43,-2.2,3.24,4.98
-0.7,-0.49,0.43,0.56,3.14,6.36
-0.7,-0.48,0.44,3.92,3.19,8.11
-0.71,-0.46,0.45,7.62,3.4,10.07
-0.73,-0.44,0.46,11.34,3.67,12.02
-0.74,-0.43,0.46,14.86,3.96,13.83
-0.74,-0.43,0.46,14.86,3.96,13.83
-0.75,-0.41,0.46,18.07,4.12,15.48
-0.76,-0.4,0.47,20.8,4.01,16.88
-0.77,-0.39,0.48,23.04,3.72,17.96
-0.78,-0.39,0.48,24.7,3.33,18.58
-0.78,-0.37,0.47,25.91,2.91,18.65
-0.78,-0.37,0.47,25.91,2.91,18.65
-0.79,-0.35,0.49,26.89,2.65,18.07
-0.8,-0.33,0.51,27.43,2.37,16.96
-0.8,-0.31,0.53,27.01,1.93,15.55
-0.79,-0.31,0.55,25.31,1.25,13.99
-0.78,-0.32,0.56,22.22,0.29,12.36
-0.78,-0.32,0.56,22.22,0.29,12.36
-0.77,-0.36,0.54,18.06,-0.86,10.76
-0.76,-0.4,0.51,13.68,-2.09,9.37
-0.76,-0.44,0.49,9.96,-3.37,8.23
-0.76,-0.47,0.47,7.35,-4.57,7.3
-0.75,-0.5,0.45,6.07,-5.58,6.57
-0.75,-0.5,0.45,6.07,-5.58,6.57
-0.73,-0.51,0.44,6.2,-6.31,6.09
-0.72,-0.51,0.43,7.72,-6.62,5.95
-0.72,-0.5,0.45,10.41,-6.5,6.36
-0.72,-0.49,0.46,13.85,-6.03,7.32
-0.73,-0.48,0.47,17.62,-5.32,8.88
-0.73,-0.48,0.47,17.62,-5.32,8.88
-0.74,-0.49,0.47,21.58,-4.58,10.94
-0.74,-0.5,0.46,25.83,-3.87,13.32
-0.75,-0.5,0.46,30.68,-3.17,15.89
-0.78,-0.49,0.47,36.23,-2.4,18.37
-0.81,-0.48,0.47,42.3,-1.47,20.22
-0.81,-0.48,0.47,42.3,-1.47,20.22
-0.84,-0.47,0.48,48.74,-0.52,21.14
-0.87,-0.46,0.47,55.37,0.31,20.86
-0.87,-0.46,0.46,62.22,0.95,19.31
-0.87,-0.49,0.47,69.51,1.35,16.93
-0.89,-0.54,0.49,77.55,1.39,14.27
-0.89,-0.54,0.49,77.55,1.39,14.27
-0.92,-0.6,0.47,86.4,1.27,10.99
-1.0,-0.64,0.48,96.74,1.29,6.32
-1.07,-0.72,0.43,108.79,1.02,-0.4
-1.12,-0.82,0.34,123.14,0.23,-9.38
-1.1,-0.86,0.2,142.01,-1.79,-19.8
-1.1,-0.86,0.2,142.01,-1.79,-19.8
-0.99,-0.85,0.08,166.18,-5.95,-29.97
-0.85,-0.74,0.09,195.31,-12.79,-37.4
-0.77,-0.57,0.25,227.31,-21.84,-40.67
-0.73,-0.4,0.47,246.51,-32.04,-40.7
-0.74,-0.27,0.55,246.51,-41.7,-39.59
-0.74,-0.27,0.55,246.51,-41.7,-39.59
-0.72,-0.22,0.49,246.51,-50.01,-39.05
-0.63,-0.24,0.4,246.51,-56.56,-39.34
-0.51,-0.21,0.34,246.51,-60.69,-39.41
-0.37,-0.08,0.33,246.51,-61.39,-38.21
-0.22,0.11,0.41,246.51,-57.62,-35.39
-0.22,0.11,0.41,246.51,-57.62,-35.39
-0.16,0.29,0.54,246.51,-48.74,-31.07
-0.24,0.41,0.73,246.51,-35.03,-25.7
-0.41,0.48,0.8,246.51,-18.36,-19.97
-0.57,0.49,0.63,246.51,-1.83,-14.55
-0.69,0.43,0.45,246.51,11.82,-9.47
-0.69,0.43,0.45,246.51,11.82,-9.47
-0.79,0.36,0.39,246.51,20.5,-4.1
-0.81,0.34,0.38,246.51,24.39,1.27
-0.77,0.36,0.45,246.51,25.26,6.06
-0.75,0.42,0.56,246.51,24.97,9.8
-0.71,0.47,0.6,246.51,24.5,12.09
-0.71,0.47,0.6,246.51,24.5,12.09
-0.6,0.48,0.56,246.51,24.24,13.38
-0.53,0.43,0.55,246.51,24.34,14.99
-0.57,0.36,0.56,246.51,25.44,17.4
-0.63,0.3,0.51,237.19,27.88,19.66
-0.62,0.22,0.42,226.71,31.48,21.02
-0.62,0.22,0.42,226.71,31.48,21.02
-0.59,0.17,0.37,219.77,35.76,22.2
-0.64,0.17,0.39,217.01,40.66,23.9
-0.71,0.24,0.43,218.3,45.81,25.71
-0.77,0.36,0.47,222.56,50.75,27.32
-0.83,0.51,0.53,227.84,54.89,28.62
-0.83,0.51,0.53,227.84,54.89,28.62
-0.87,0.68,0.6,231.96,57.31,29.4
-0.89,0.84,0.7,233.03,57.5,29.57
-0.91,0.97,0.78,229.44,55.73,29.14
-0.93,1.06,0.81,220.33,52.29,28.25
-0.97,1.08,0.83,205.7,47.26,27.06
-0.97,1.08,0.83,205.7,47.26,27.06
-1.0,1.03,0.82,185.82,40.69,25.8
-1.04,0.93,0.78,162.02,32.68,24.74
-1.02,0.84,0.76,136.94,23.12,23.87
-0.97,0.79,0.78,112.55,12.73,22.96
-0.92,0.77,0.8,89.44,2.46,21.94
-0.92,0.77,0.8,89.44,2.46,21.94
-0.89,0.74,0.79,67.23,-7.19,20.95
-0.87,0.68,0.76,45.58,-16.15,19.99
-0.82,0.57,0.7,24.86,-24.63,19.11
-0.77,0.43,0.64,6.29,-32.46,18.6
-0.72,0.3,0.62,-8.08,-38.93,18.34
-0.72,0.3,0.62,-8.08,-38.93,18.34
-0.65,0.2,0.6,-16.98,-43.12,17.83
-0.58,0.15,0.59,-19.89,-44.35,17.26
-0.54,0.15,0.6,-17.04,-42.19,16.87
