ax,ay,az,gx,gy,gz
0.36,-0.27,0.78,-45.61,35.39,21.65
0.37,-0.28,0.78,-46.04,35.59,21.87
0.38,-0.29,0.78,-46.09,36.07,22.1
0.38,-0.29,0.78,-46.09,36.07,22.1
0.39,-0.28,0.79,-45.77,37.06,22.24
0.38,-0.28,0.81,-45.11,38.64,22.19
0.36,-0.27,0.81,-44.29,40.69,21.83
0.34,-0.27,0.82,-43.52,43.02,21.13
0.34,-0.28,0.82,-42.82,45.5,20.08
0.34,-0.28,0.82,-42.82,45.5,20.08
0.34,-0.29,0.81,-42.16,48.1,18.84
0.33,-0.3,0.81,-41.48,50.71,17.62
0.31,-0.31,0.81,-40.65,53.16,16.48
0.3,-0.32,0.82,-39.6,55.33,15.42
0.3,-0.34,0.82,-38.25,57.11,14.53
0.3,-0.34,0.82,-38.25,57.11,14.53
0.27,-0.36,0.83,-36.56,58.29,14.01
0.23,-0.36,0.84,-34.54,58.54,14.0
0.2,-0.36,0.84,-32.23,57.73,14.42
0.19,-0.35,0.86,-29.76,56.06,14.94
0.18,-0.33,0.88,-27.39,53.74,15.33
0.18,-0.33,0.88,-27.39,53.74,15.33
0.17,-0.32,0.89,-25.46,50.84,15.45
0.18,-0.31,0.9,-24.06,47.48,15.23
0.2,-0.32,0.9,-23.19,43.97,14.66
0.23,-0.33,0.89,-22.7,40.64,13.88
0.26,-0.35,0.89,-22.4,37.75,13.11
0.26,-0.35,0.89,-22.4,37.75,13.11
0.29,-0.36,0.88,-22.12,35.53,12.49
0.29,-0.37,0.87,-21.71,34.04,11.97
0.3,-0.37,0.87,-21.11,33.3,11.4
0.3,-0.38,0.87,-20.34,33.39,10.63
0.3,-0.39,0.86,-19.42,34.33,9.6
0.3,-0.39,0.86,-19.42,34.33,9.6
0.28,-0.39,0.86,-18.3,35.9,8.34
0.25,-0.38,0.86,-17.05,37.7,6.78
0.23,-0.37,0.87,-15.79,39.52,4.83
0.23,-0.37,0.87,-14.6,41.34,2.57
0.23,-0.38,0.87,-13.54,43.12,0.24
0.23,-0.38,0.87,-13.54,43.12,0.24
0.24,-0.39,0.86,-12.5,44.92,-1.82
0.24,-0.4,0.85,-11.29,46.75,-3.55
0.24,-0.4,0.85,-9.72,48.69,-5.01
0.24,-0.41,0.85,-7.62,50.82,-6.33
0.23,-0.42,0.85,-5.03,53.16,-7.47
0.23,-0.42,0.85,-5.03,53.16,-7.47
0.21,-0.41,0.84,-1.84,55.64,-8.37
0.19,-0.39,0.84,1.88,58.08,-9.19
0.17,-0.37,0.84,6.08,60.45,-10.03
0.17,-0.35,0.84,10.59,62.71,-10.87
0.18,-0.34,0.84,15.1,65.07,-11.55
0.18,-0.34,0.84,15.1,65.07,-11.55
0.19,-0.34,0.84,19.49,67.62,-11.84
0.2,-0.33,0.84,23.79,70.54,-11.75
0.18,-0.32,0.84,27.95,73.87,-11.39
0.13,-0.3,0.85,31.83,77.26,-11.0
0.08,-0.29,0.86,35.36,80.47,-11.05
0.08,-0.29,0.86,35.36,80.47,-11.05
0.03,-0.28,0.86,38.51,83.36,-11.82
0.01,-0.28,0.86,41.3,85.92,-13.45
0.02,-0.29,0.86,43.81,88.09,-15.82
0.04,-0.31,0.85,46.18,90.08,-18.58
0.07,-0.32,0.84,48.61,92.1,-21.21
0.07,-0.32,0.84,48.61,92.1,-21.21
0.08,-0.33,0.84,51.33,94.22,-23.38
0.08,-0.32,0.84,54.5,96.52,-25.0
0.05,-0.31,0.84,58.14,98.73,-26.11
-0.0,-0.29,0.85,62.14,100.4,-26.71
-0.07,-0.26,0.87,66.24,100.99,-26.8
-0.07,-0.26,0.87,66.24,100.99,-26.8
-0.12,-0.21,0.89,70.04,100.11,-26.59
-0.14,-0.18,0.92,73.15,97.82,-26.38
-0.12,-0.14,0.94,75.23,94.36,-26.28
-0.09,-0.13,0.96,76.2,90.17,-26.19
-0.05,-0.12,0.98,76.12,85.89,-26.01
-0.05,-0.12,0.98,76.12,85.89,-26.01
-0.02,-0.11,0.99,75.03,81.99,-25.61
-0.01,-0.11,0.99,73.11,78.67,-24.92
-0.02,-0.11,0.99,70.53,75.95,-24.03
-0.04,-0.12,0.99,67.34,73.67,-23.03
-0.06,-0.14,0.98,63.8,71.57,-22.04
-0.06,-0.14,0.98,63.8,71.57,-22.04
-0.08,-0.16,0.96,60.31,69.43,-21.09
-0.1,-0.18,0.94,57.27,67.13,-20.26
-0.11,-0.2,0.93,54.95,64.53,-19.43
-0.11,-0.21,0.92,53.51,61.49,-18.47
-0.12,-0.21,0.92,53.05,58.07,-17.35
-0.12,-0.21,0.92,53.05,58.07,-17.35
-0.13,-0.21,0.92,53.63,54.45,-16.31
-0.14,-0.21,0.93,55.11,50.67,-15.51
-0.14,-0.19,0.93,57.3,46.85,-14.99
-0.14,-0.18,0.94,60.01,43.12,-14.89
-0.13,-0.16,0.95,63.02,39.73,-15.24
-0.13,-0.16,0.95,63.02,39.73,-15.24
-0.11,-0.14,0.97,66.11,36.83,-15.98
-0.09,-0.11,0.99,69.1,34.62,-16.94
-0.08,-0.09,1.0,71.8,33.14,-17.94
-0.09,-0.07,1.0,74.07,32.27,-18.77
-0.1,-0.05,1.0,75.79,31.87,-19.42
-0.1,-0.05,1.0,75.79,31.87,-19.42
-0.12,-0.03,1.0,76.87,31.65,-19.83
-0.13,-0.02,1.0,77.32,31.45,-19.96
-0.14,-0.01,1.0,77.26,31.16,-19.98
-0.16,-0.01,1.0,76.86,30.82,-20.0
-0.17,-0.01,0.99,76.35,30.29,-20.06
-0.17,-0.01,0.99,76.35,30.29,-20.06
-0.18,-0.01,0.99,75.93,29.47,-20.11
-0.18,-0.0,0.98,75.69,28.3,-20.12
-0.18,0.01,0.98,75.61,26.74,-20.01
-0.18,0.03,0.99,75.57,24.95,-19.73
-0.18,0.04,0.99,75.51,23.06,-19.35
-0.18,0.04,0.99,75.51,23.06,-19.35
-0.18,0.05,0.99,75.31,21.26,-19.05
-0.18,0.07,0.99,74.97,19.6,-18.87
-0.17,0.08,0.98,74.58,18.23,-18.82
-0.17,0.1,0.98,74.15,17.15,-18.8
-0.17,0.12,0.98,73.5,16.27,-18.77
-0.17,0.12,0.98,73.5,16.27,-18.77
-0.16,0.13,0.97,72.54,15.47,-18.56
-0.17,0.14,0.96,71.24,14.57,-18.0
-0.18,0.15,0.95,69.63,13.44,-17.06
-0.19,0.16,0.95,67.8,12.0,-15.8
-0.19,0.17,0.95,65.82,10.3,-14.32
-0.19,0.17,0.95,65.82,10.3,-14.32
-0.2,0.18,0.95,63.77,8.46,-12.8
-0.19,0.2,0.95,61.72,6.6,-11.4
-0.19,0.22,0.96,59.65,4.92,-10.21
-0.19,0.24,0.96,57.43,3.46,-9.2
-0.18,0.25,0.96,54.94,2.26,-8.33
-0.18,0.25,0.96,54.94,2.26,-8.33
-0.18,0.26,0.95,52.14,1.31,-7.44
-0.18,0.27,0.95,49.13,0.54,-6.5
-0.18,0.28,0.95,46.04,-0.17,-5.4
-0.17,0.28,0.94,42.88,-0.94,-4.07
-0.17,0.28,0.93,39.73,-1.86,-2.41
-0.17,0.28,0.93,39.73,-1.86,-2.41
-0.18,0.28,0.93,36.64,-3.0,-0.4
-0.17,0.29,0.93,33.82,-4.18,1.78
-0.17,0.3,0.93,31.32,-5.1,3.92
-0.16,0.3,0.93,29.13,-5.74,5.96
-0.15,0.31,0.92,27.18,-6.09,7.93
-0.15,0.31,0.92,27.18,-6.09,7.93
-0.14,0.32,0.91,25.5,-6.11,9.85
-0.13,0.33,0.9,24.12,-5.73,11.72
-0.14,0.33,0.89,22.93,-5.07,13.59
-0.14,0.33,0.88,21.85,-4.34,15.49
-0.16,0.34,0.86,20.96,-3.64,17.35
-0.16,0.34,0.86,20.96,-3.64,17.35
-0.17,0.35,0.85,20.32,-3.02,19.09
-0.2,0.35,0.84,19.94,-2.73,20.67
-0.23,0.36,0.82,19.66,-3.0,21.99
-0.26,0.38,0.81,19.36,-4.1,23.04
-0.29,0.42,0.81,18.93,-6.14,23.72
-0.29,0.42,0.81,18.93,-6.14,23.72
-0.31,0.46,0.82,18.03,-9.1,24.0
-0.31,0.51,0.82,16.25,-13.02,24.01
-0.29,0.56,0.82,13.15,-17.93,23.98
-0.25,0.61,0.82,8.24,-23.58,24.18
-0.2,0.63,0.8,1.17,-29.71,24.91
-0.2,0.63,0.8,1.17,-29.71,24.91
-0.14,0.63,0.76,-8.03,-35.86,26.35
-0.08,0.61,0.73,-18.96,-41.43,28.33
-0.01,0.57,0.71,-30.97,-45.47,30.46
0.06,0.5,0.7,-43.16,-47.23,32.47
0.11,0.41,0.69,-54.63,-46.49,34.37
0.11,0.41,0.69,-54.63,-46.49,34.37
0.15,0.32,0.7,-64.46,-43.36,36.33
0.15,0.25,0.7,-71.83,-38.12,38.28
0.15,0.18,0.69,-76.04,-31.24,39.96
0.14,0.13,0.69,-76.66,-23.47,41.29
0.15,0.09,0.7,-73.73,-15.66,42.56
0.15,0.09,0.7,-73.73,-15.66,42.56
0.16,0.09,0.73,-67.55,-8.37,44.17
0.17,0.12,0.77,-58.71,-1.91,46.29
0.17,0.15,0.83,-48.15,3.67,48.87
0.18,0.17,0.89,-36.88,8.27,51.57
0.18,0.17,0.95,-25.73,11.89,54.21
0.18,0.17,0.95,-25.73,11.89,54.21
0.19,0.18,1.0,-15.05,14.91,56.67
0.2,0.18,1.04,-4.84,17.6,58.82
0.21,0.19,1.09,4.97,20.03,60.62
0.23,0.21,1.14,14.28,22.39,61.99
0.24,0.24,1.19,22.81,24.87,62.78
0.24,0.24,1.19,22.81,24.87,62.78
0.23,0.32,1.26,29.69,27.64,62.77
0.21,0.33,1.29,33.94,30.26,62.04
0.17,0.35,1.31,37.74,32.93,61.64
0.12,0.36,1.35,40.91,35.88,61.26
0.08,0.38,1.37,43.52,38.56,60.97
0.08,0.38,1.37,43.52,38.56,60.97
0.03,0.4,1.41,45.35,40.52,61.24
-0.02,0.4,1.44,45.88,41.22,62.14
-0.08,0.38,1.45,44.81,40.28,63.38
-0.11,0.33,1.42,42.49,37.58,64.66
-0.12,0.28,1.39,39.89,33.33,65.82
-0.12,0.28,1.39,39.89,33.33,65.82
-0.11,0.22,1.37,37.86,27.96,66.75
-0.09,0.18,1.34,36.7,21.97,67.49
-0.07,0.14,1.32,36.37,15.76,67.94
-0.05,0.1,1.3,36.82,9.63,68.06
-0.02,0.05,1.28,37.85,3.86,67.87
-0.02,0.05,1.28,37.85,3.86,67.87
-0.0,0.01,1.26,39.24,-1.33,67.42
0.01,-0.03,1.24,40.94,-5.74,66.71
0.01,-0.07,1.22,42.88,-9.32,65.62
0.01,-0.1,1.21,44.94,-12.14,64.05
0.01,-0.12,1.21,47.0,-14.39,62.06
0.01,-0.12,1.21,47.0,-14.39,62.06
0.01,-0.13,1.21,48.77,-16.13,59.72
0.02,-0.12,1.2,49.97,-17.47,56.96
0.02,-0.11,1.2,50.38,-18.55,53.68
0.01,-0.1,1.2,49.74,-19.61,49.99
-0.0,-0.09,1.21,47.75,-20.72,45.9
-0.0,-0.09,1.21,47.75,-20.72,45.9
-0.01,-0.08,1.22,44.3,-21.77,41.46
-0.02,-0.08,1.22,39.5,-22.6,36.65
-0.01,-0.09,1.22,33.65,-23.08,31.6
-0.02,-0.11,1.22,27.07,-23.18,26.35
-0.03,-0.13,1.22,20.1,-22.92,21.05
-0.03,-0.13,1.22,20.1,-22.92,21.05
-0.06,-0.16,1.22,12.92,-22.49,15.78
-0.09,-0.19,1.2,5.73,-22.29,10.59
-0.13,-0.21,1.17,-1.13,-22.59,5.49
-0.15,-0.24,1.15,-7.32,-23.73,0.41
-0.16,-0.26,1.13,-12.57,-25.94,-4.6
-0.16,-0.26,1.13,-12.57,-25.94,-4.6
-0.15,-0.28,1.11,-16.71,-29.1,-9.36
-0.14,-0.29,1.09,-19.61,-32.89,-13.84
-0.13,-0.27,1.08,-21.21,-36.95,-18.09
-0.11,-0.26,1.08,-21.73,-41.04,-22.07
-0.11,-0.26,1.08,-21.56,-45.03,-25.58
-0.1,-0.25,1.09,-21.56,-45.03,-25.58
-0.1,-0.23,1.1,-21.22,-48.7,-28.67
-0.11,-0.22,1.1,-20.95,-51.87,-31.6
-0.12,-0.21,1.11,-20.71,-54.31,-34.59
-0.14,-0.21,1.11,-20.28,-55.87,-37.85
-0.14,-0.21,1.11,-19.55,-56.42,-41.46
-0.17,-0.19,1.1,-19.55,-56.42,-41.46
-0.2,-0.17,1.09,-18.52,-56.14,-45.47
-0.2,-0.15,1.07,-17.3,-55.41,-49.88
-0.19,-0.13,1.06,-15.95,-54.53,-54.41
-0.16,-0.11,1.06,-14.63,-53.72,-58.69
-0.16,-0.11,1.06,-14.63,-53.72,-58.69
-0.14,-0.1,1.06,-13.49,-53.04,-62.37
-0.13,-0.11,1.05,-12.76,-52.63,-65.29
-0.15,-0.12,1.04,-12.45,-52.53,-67.52
-0.17,-0.14,1.02,-12.32,-52.83,-69.36
-0.18,-0.15,1.0,-12.13,-53.53,-71.15
-0.18,-0.15,1.0,-12.13,-53.53,-71.15
-0.17,-0.16,0.98,-11.83,-54.55,-73.07
-0.14,-0.17,0.96,-11.25,-55.7,-75.24
-0.1,-0.15,0.96,-10.12,-56.46,-77.8
-0.08,-0.12,0.98,-8.27,-56.25,-80.87
-0.07,-0.07,0.99,-5.75,-54.69,-84.6
-0.07,-0.07,0.99,-5.75,-54.69,-84.6
-0.08,-0.03,1.01,-2.93,-51.89,-88.69
-0.12,0.01,1.04,-0.37,-48.14,-92.67
-0.18,0.06,1.07,1.5,-43.64,-96.42
-0.23,0.09,1.08,2.46,-38.67,-100.1
-0.28,0.1,1.07,2.49,-33.61,-103.65
-0.28,0.1,1.07,2.49,-33.61,-103.65
-0.31,0.11,1.04,1.77,-28.9,-107.13
-0.33,0.1,1.02,0.71,-24.78,-110.56
-0.33,0.1,1.0,-0.44,-21.3,-113.68
-0.34,0.11,0.98,-1.71,-18.61,-115.91
-0.35,0.13,0.96,-3.3,-16.89,-117.01
-0.35,0.13,0.96,-3.3,-16.89,-117.01
-0.36,0.14,0.93,-5.37,-16.38,-117.25
-0.35,0.14,0.9,-7.84,-17.13,-117.0
-0.32,0.12,0.87,-10.43,-18.86,-116.31
-0.3,0.1,0.84,-12.78,-21.19,-114.94
-0.28,0.09,0.81,-14.72,-23.83,-112.86
-0.28,0.09,0.81,-14.72,-23.83,-112.86
-0.26,0.09,0.79,-16.13,-26.55,-110.35
-0.23,0.1,0.79,-17.05,-29.02,-107.74
-0.19,0.1,0.79,-17.76,-31.0,-105.23
-0.17,0.1,0.78,-18.63,-32.23,-102.68
-0.16,0.1,0.79,-19.91,-32.52,-100.07
-0.16,0.1,0.79,-19.91,-32.52,-100.07
-0.17,0.11,0.79,-21.64,-31.67,-97.59
-0.18,0.12,0.79,-23.76,-29.63,-95.56
-0.18,0.13,0.79,-26.25,-26.69,-94.04
-0.18,0.14,0.77,-29.19,-23.21,-92.87
-0.16,0.15,0.76,-32.58,-19.57,-91.85
-0.16,0.15,0.76,-32.58,-19.57,-91.85
-0.14,0.14,0.74,-36.12,-16.16,-90.81
-0.13,0.14,0.73,-39.67,-13.14,-89.43
-0.12,0.13,0.71,-43.06,-10.66,-87.53
-0.14,0.13,0.7,-45.98,-8.87,-85.09
-0.14,0.12,0.7,-48.25,-7.79,-82.4
-0.14,0.12,0.7,-48.25,-7.79,-82.4
-0.14,0.11,0.72,-49.74,-7.28,-79.46
-0.14,0.12,0.74,-50.68,-7.02,-76.16
-0.14,0.13,0.76,-51.14,-6.8,-73.57
-0.1,0.11,0.77,-50.51,-6.09,-72.19
-0.09,0.13,0.8,-48.62,-4.17,-71.3
-0.09,0.13,0.8,-48.62,-4.17,-71.3
-0.12,0.18,0.81,-46.67,-1.31,-70.54
-0.14,0.23,0.81,-45.15,1.9,-70.18
-0.13,0.25,0.83,-43.99,5.37,-70.57
-0.12,0.26,0.84,-43.25,9.11,-71.2
-0.14,0.28,0.84,-42.79,13.19,-71.53
-0.14,0.28,0.84,-42.79,13.19,-71.53
-0.15,0.3,0.83,-42.57,17.34,-71.59
-0.16,0.31,0.82,-42.73,21.14,-71.25
-0.16,0.32,0.8,-43.37,24.11,-70.15
-0.15,0.33,0.78,-44.29,25.98,-68.2
-0.14,0.34,0.76,-44.88,26.67,-65.51
-0.14,0.34,0.76,-44.88,26.67,-65.51
-0.12,0.33,0.76,-44.66,26.22,-62.2
-0.1,0.33,0.76,-43.66,24.9,-58.26
-0.08,0.35,0.77,-42.03,23.0,-53.82
-0.08,0.37,0.78,-39.91,20.85,-49.28
-0.07,0.36,0.8,-37.42,18.69,-45.12
-0.07,0.36,0.8,-37.42,18.69,-45.12
-0.06,0.36,0.82,-34.46,16.92,-41.24
-0.05,0.37,0.85,-31.32,15.85,-37.62
-0.04,0.37,0.87,-28.23,15.54,-34.66
-0.03,0.36,0.88,-25.19,16.15,-32.24
-0.03,0.36,0.89,-22.3,17.61,-30.18
-0.03,0.36,0.89,-22.3,17.61,-30.18
-0.04,0.36,0.9,-19.61,19.72,-28.35
-0.06,0.37,0.9,-17.11,22.17,-27.01
-0.07,0.37,0.9,-14.82,24.63,-26.08
-0.08,0.38,0.91,-12.62,26.86,-25.26
-0.09,0.38,0.93,-10.57,28.72,-24.33
-0.09,0.38,0.93,-10.57,28.72,-24.33
-0.1,0.39,0.95,-8.79,30.16,-23.13
-0.12,0.4,0.96,-7.43,31.09,-21.73
-0.12,0.39,0.98,-6.59,31.37,-20.15
-0.1,0.38,0.99,-6.31,31.02,-18.36
-0.09,0.35,0.99,-6.37,30.15,-16.42
-0.09,0.35,0.99,-6.37,30.15,-16.42
-0.09,0.32,0.99,-6.49,28.89,-14.39
-0.11,0.29,0.98,-6.39,27.42,-12.43
-0.11,0.27,0.97,-5.86,25.92,-10.78
-0.1,0.25,0.96,-4.73,24.65,-9.54
-0.08,0.24,0.96,-2.88,23.94,-8.67
-0.08,0.24,0.96,-2.88,23.94,-8.67
-0.06,0.24,0.95,-0.34,24.08,-7.98
-0.05,0.24,0.95,2.76,25.22,-7.24
-0.07,0.25,0.96,6.12,27.35,-6.25
-0.11,0.29,0.98,9.44,29.92,-5.08
-0.15,0.32,0.99,12.35,32.29,-3.95
-0.15,0.32,0.99,12.35,32.29,-3.95
-0.17,0.34,1.01,14.27,33.89,-2.82
-0.17,0.35,1.01,14.84,34.5,-1.69
-0.17,0.34,1.01,14.2,34.23,-0.56
-0.15,0.33,1.01,12.7,33.25,0.57
-0.14,0.31,1.0,10.66,31.72,1.87
-0.14,0.31,1.0,10.66,31.72,1.87
-0.15,0.29,0.99,8.36,29.82,3.49
-0.15,0.28,0.98,6.1,27.67,5.31
-0.15,0.25,0.97,4.07,25.32,6.93
-0.14,0.22,0.98,2.36,22.83,8.05
-0.13,0.2,0.99,0.85,20.17,8.61
-0.13,0.2,0.99,0.85,20.17,8.61
-0.12,0.18,0.99,-0.55,17.22,8.8
-0.1,0.15,0.99,-1.56,14.02,8.93
-0.07,0.13,0.99,-1.9,10.84,9.22
-0.05,0.14,1.01,-1.65,8.15,9.82
-0.03,0.16,1.04,-1.13,6.66,10.21
-0.03,0.16,1.04,-1.13,6.66,10.21
-0.01,0.17,1.04,-0.68,6.97,9.89
-0.01,0.18,1.03,-0.72,9.0,9.18
-0.04,0.18,1.01,-1.17,12.32,8.53
-0.08,0.17,0.99,-1.6,16.34,7.95
-0.1,0.14,0.99,-1.79,20.4,7.49
-0.1,0.14,0.99,-1.79,20.4,7.49
-0.13,0.12,0.99,-1.66,24.13,7.28
-0.17,0.11,0.98,-0.71,27.28,7.29
-0.2,0.11,0.99,1.41,29.49,7.33
-0.24,0.16,1.01,3.94,30.19,7.6
-0.22,0.21,1.06,5.56,29.02,7.38
-0.22,0.21,1.06,5.56,29.02,7.38
-0.21,0.19,1.04,5.23,25.9,7.9
-0.2,0.18,1.01,4.97,21.61,9.51
-0.18,0.15,1.04,4.72,16.47,11.21
-0.18,0.21,1.07,4.47,11.01,12.65
-0.18,0.22,1.07,2.98,5.95,13.16
-0.18,0.22,1.07,2.98,5.95,13.16
-0.16,0.18,1.02,1.21,1.8,13.02
-0.13,0.13,1.01,0.18,-0.65,12.43
-0.12,0.12,1.02,-0.3,-1.52,11.62
-0.12,0.15,1.03,-0.83,-1.02,11.14
-0.14,0.14,1.01,-2.26,0.44,11.29
-0.14,0.14,1.01,-2.26,0.44,11.29
-0.16,0.11,0.98,-4.54,2.09,11.83
-0.17,0.07,0.95,-6.49,3.56,12.49
-0.19,0.06,0.94,-7.27,4.78,13.12
-0.2,0.06,0.94,-7.0,5.54,13.41
-0.19,0.08,0.95,-6.08,5.78,13.4
-0.19,0.08,0.95,-6.08,5.78,13.4
-0.18,0.1,0.97,-5.07,5.52,13.49
-0.18,0.14,0.98,-4.71,4.78,13.94
-0.2,0.19,0.99,-5.62,3.43,14.5
-0.2,0.2,0.98,-8.22,1.4,14.58
-0.19,0.16,0.96,-11.89,-1.09,13.84
-0.19,0.16,0.96,-11.89,-1.09,13.84
-0.16,0.08,0.93,-15.41,-3.45,12.74
-0.13,0.03,0.91,-17.72,-5.22,11.98
-0.12,0.0,0.92,-18.52,-6.27,11.79
-0.12,0.01,0.93,-18.04,-6.72,11.88
-0.11,0.01,0.95,-16.91,-6.9,11.65
-0.11,0.01,0.95,-16.91,-6.9,11.65
-0.1,0.01,0.96,-15.65,-6.93,11.5
-0.11,0.02,0.97,-14.6,-6.93,11.75
-0.11,0.01,0.96,-13.54,-6.9,11.79
-0.1,-0.01,0.96,-11.86,-6.7,11.63
-0.11,-0.0,0.97,-9.43,-6.4,11.81
-0.11,-0.0,0.97,-9.43,-6.4,11.81
-0.13,0.02,0.98,-6.81,-6.36,12.41
-0.15,0.04,0.98,-4.44,-6.92,13.2
-0.14,0.03,0.98,-2.18,-8.11,13.81
-0.14,0.02,0.99,0.27,-9.59,14.48
-0.16,0.04,1.01,2.88,-11.17,15.2
-0.16,0.04,1.01,2.88,-11.17,15.2
-0.18,0.07,1.02,5.42,-12.89,15.63
-0.18,0.1,1.03,7.7,-14.78,15.73
-0.18,0.13,1.03,9.31,-17.02,15.71
-0.16,0.14,1.04,9.96,-19.68,15.77
-0.14,0.15,1.03,9.75,-22.54,15.94
-0.14,0.15,1.03,9.75,-22.54,15.94
-0.12,0.15,1.04,8.98,-25.24,16.05
-0.09,0.15,1.04,7.67,-27.44,15.87
-0.08,0.15,1.03,5.8,-28.98,15.39
-0.07,0.13,1.02,3.52,-29.83,14.7
-0.06,0.1,1.0,1.3,-29.97,13.97
-0.06,0.1,1.0,1.3,-29.97,13.97
-0.05,0.08,0.99,-0.37,-29.41,13.41
-0.06,0.06,0.97,-1.27,-28.17,13.16
-0.07,0.06,0.97,-1.42,-26.53,13.2
-0.08,0.06,0.96,-0.93,-24.78,13.39
-0.08,0.07,0.95,0.21,-23.08,13.62
-0.08,0.07,0.95,0.21,-23.08,13.62
-0.09,0.08,0.95,2.0,-21.44,13.91
-0.09,0.1,0.96,4.24,-19.99,14.3
-0.1,0.12,0.97,6.61,-18.71,14.89
-0.11,0.15,0.99,8.67,-17.78,15.55
-0.12,0.18,1.0,10.02,-17.26,16.15
-0.12,0.18,1.0,10.02,-17.26,16.15
-0.12,0.19,1.0,10.5,-17.16,16.5
-0.13,0.19,1.01,10.09,-17.38,16.54
-0.14,0.18,1.01,9.09,-17.78,16.31
-0.14,0.17,1.01,7.79,-18.35,15.78
-0.13,0.16,1.01,6.48,-18.96,15.09
-0.13,0.16,1.01,6.48,-18.96,15.09
-0.11,0.16,1.02,5.11,-19.5,14.39
-0.09,0.16,1.02,3.51,-19.76,13.75
-0.07,0.16,1.02,1.56,-19.65,13.14
-0.05,0.15,1.01,-0.76,-19.2,12.53
-0.05,0.13,0.99,-3.26,-18.44,11.91
-0.05,0.13,0.99,-3.26,-18.44,11.91
-0.04,0.12,0.98,-5.66,-17.45,11.35
-0.04,0.1,0.97,-7.68,-16.26,10.92
-0.04,0.09,0.96,-9.16,-14.94,10.52
-0.03,0.08,0.95,-10.02,-13.59,10.09
-0.03,0.07,0.95,-10.26,-12.17,9.68
-0.03,0.07,0.95,-10.26,-12.17,9.68
-0.03,0.07,0.95,-9.93,-10.7,9.36
-0.04,0.07,0.95,-9.14,-9.25,9.18
-0.04,0.08,0.95,-8.04,-7.75,9.13
-0.04,0.09,0.95,-6.71,-6.14,9.08
-0.05,0.1,0.95,-5.17,-4.33,8.96
-0.05,0.1,0.95,-5.17,-4.33,8.96
-0.05,0.1,0.95,-3.36,-2.33,8.75
-0.07,0.1,0.94,-1.35,-0.21,8.47
-0.08,0.12,0.95,0.79,1.79,8.15
-0.1,0.15,0.96,2.78,3.47,7.76
-0.09,0.17,0.96,4.28,4.63,7.23
-0.09,0.17,0.96,4.28,4.63,7.23
-0.08,0.18,0.97,5.11,5.44,6.6
-0.07,0.18,0.97,5.35,6.06,5.9
-0.06,0.18,0.96,5.17,6.58,5.33
-0.06,0.17,0.95,4.7,6.97,5.09
-0.07,0.16,0.95,4.15,7.18,5.19
-0.07,0.16,0.95,4.15,7.18,5.19
-0.08,0.16,0.95,3.62,7.31,5.45
-0.08,0.16,0.95,3.18,7.43,5.72
-0.09,0.17,0.96,2.81,7.65,5.86
-0.09,0.17,0.96,2.49,7.97,5.93
-0.09,0.17,0.95,2.15,8.39,6.03
-0.09,0.17,0.95,2.15,8.39,6.03
-0.08,0.17,0.95,1.87,8.99,6.18
-0.08,0.17,0.94,1.63,9.76,6.38
-0.08,0.17,0.93,1.47,10.68,6.54
-0.07,0.17,0.93,1.37,11.69,6.64
-0.07,0.16,0.91,1.38,12.91,6.76
-0.07,0.16,0.91,1.38,12.91,6.76
-0.06,0.16,0.91,1.56,14.45,6.86
-0.05,0.15,0.91,2.07,16.44,6.85
-0.04,0.14,0.9,3.02,19.02,6.8
-0.03,0.13,0.91,4.49,22.15,6.88
-0.04,0.13,0.92,6.35,25.71,6.99
-0.04,0.13,0.92,6.35,25.71,6.99
-0.06,0.13,0.91,8.4,29.54,7.12
-0.07,0.13,0.91,10.51,33.37,7.23
-0.09,0.13,0.91,12.57,37.03,7.34
-0.1,0.14,0.92,14.58,40.35,7.5
-0.11,0.15,0.92,16.46,43.28,7.67
