ax,ay,az,gx,gy,gz
0.01,-0.42,0.82,-27.05,2.91,5.78
0.05,-0.39,0.84,-19.98,-0.35,7.9
0.09,-0.36,0.86,-12.78,-3.9,10.03
0.12,-0.32,0.87,-6.35,-7.3,12.08
0.13,-0.29,0.88,-1.24,-10.31,13.81
0.13,-0.27,0.88,2.4,-12.56,14.94
0.13,-0.27,0.88,2.4,-12.56,14.94
0.12,-0.25,0.89,4.39,-13.79,15.42
0.09,-0.23,0.93,4.66,-13.76,15.18
0.06,-0.22,0.97,3.39,-12.17,14.14
0.03,-0.23,1.0,0.73,-9.19,12.37
0.01,-0.24,1.01,-3.24,-5.26,9.93
0.01,-0.24,1.01,-3.24,-5.26,9.93
-0.0,-0.26,1.01,-7.83,-0.36,7.06
-0.04,-0.28,1.01,-12.05,5.46,4.1
-0.07,-0.3,1.01,-15.47,11.6,1.31
-0.09,-0.31,1.0,-17.97,17.27,-1.19
-0.1,-0.32,0.98,-19.39,21.95,-3.34
-0.1,-0.32,0.98,-19.39,21.95,-3.34
-0.1,-0.33,0.95,-19.42,25.18,-4.91
-0.1,-0.34,0.94,-17.95,26.67,-5.61
-0.08,-0.34,0.93,-15.39,26.25,-5.48
-0.05,-0.34,0.91,-12.05,24.08,-4.51
-0.02,-0.35,0.89,-8.01,20.67,-2.64
-0.02,-0.35,0.89,-8.01,20.67,-2.64
0.01,-0.36,0.88,-3.45,16.43,-0.08
0.04,-0.36,0.87,1.37,11.52,2.8
0.07,-0.34,0.86,6.15,6.44,5.59
0.08,-0.32,0.86,10.47,1.72,7.96
0.09,-0.3,0.86,13.83,-2.42,9.55
0.09,-0.3,0.86,13.83,-2.42,9.55
0.12,-0.28,0.86,15.92,-5.98,10.16
0.15,-0.26,0.86,16.59,-8.96,9.87
0.17,-0.24,0.87,15.69,-11.01,8.95
0.17,-0.23,0.88,13.28,-11.73,7.55
0.16,-0.23,0.89,9.29,-11.08,5.73
0.16,-0.23,0.89,9.29,-11.08,5.73
0.13,-0.25,0.9,4.01,-9.15,3.55
0.09,-0.27,0.91,-2.04,-6.07,1.05
0.05,-0.3,0.93,-8.08,-1.98,-1.74
0.02,-0.33,0.92,-13.63,2.84,-4.73
0.01,-0.35,0.92,-18.23,7.91,-7.64
0.01,-0.35,0.92,-18.23,7.91,-7.64
0.01,-0.37,0.92,-21.46,12.94,-10.12
-0.0,-0.38,0.92,-23.15,17.73,-12.03
-0.03,-0.38,0.91,-23.39,21.98,-13.34
-0.06,-0.37,0.91,-22.17,25.35,-14.05
-0.08,-0.35,0.92,-19.61,27.66,-14.21
-0.08,-0.35,0.92,-19.61,27.66,-14.21
-0.08,-0.32,0.93,-16.1,28.87,-13.88
-0.08,-0.3,0.94,-12.25,28.75,-13.08
-0.06,-0.27,0.95,-8.48,27.54,-11.82
-0.05,-0.26,0.94,-4.94,25.7,-10.13
-0.04,-0.25,0.95,-1.85,23.39,-8.11
-0.04,-0.25,0.95,-1.85,23.39,-8.11
-0.02,-0.25,0.94,0.58,20.58,-5.87
0.0,-0.26,0.92,2.24,17.33,-3.55
0.01,-0.26,0.9,3.26,13.99,-1.33
-0.02,-0.26,0.9,3.94,10.98,0.4
-0.04,-0.24,0.91,4.31,8.38,1.4
-0.04,-0.24,0.91,4.31,8.38,1.4
-0.03,-0.23,0.93,4.08,6.2,1.6
0.0,-0.22,0.94,3.04,4.62,1.2
0.01,-0.22,0.95,1.24,4.02,0.47
-0.02,-0.22,0.98,-1.13,4.74,-0.4
-0.08,-0.22,1.0,-3.76,6.61,-1.45
-0.08,-0.22,1.0,-3.76,6.61,-1.45
-0.1,-0.23,1.0,-6.61,8.9,-2.67
-0.1,-0.25,0.99,-9.36,11.26,-3.88
-0.1,-0.27,0.98,-11.5,13.59,-4.77
-0.1,-0.28,0.99,-12.82,15.57,-5.19
-0.11,-0.3,0.97,-13.27,16.76,-5.03
-0.11,-0.3,0.97,-13.27,16.76,-5.03
-0.11,-0.31,0.95,-12.92,16.95,-4.26
-0.1,-0.32,0.94,-11.83,16.01,-2.94
-0.08,-0.34,0.92,-10.15,13.91,-1.24
-0.05,-0.37,0.91,-7.87,10.96,0.75
-0.01,-0.38,0.9,-4.97,7.5,2.95
-0.01,-0.38,0.9,-4.97,7.5,2.95
0.01,-0.39,0.89,-1.63,3.82,5.17
0.03,-0.37,0.88,1.81,0.29,7.15
0.04,-0.35,0.89,5.02,-2.9,8.65
0.05,-0.33,0.9,7.59,-5.71,9.52
0.06,-0.31,0.89,9.13,-8.12,9.74
0.06,-0.31,0.89,9.13,-8.12,9.74
0.07,-0.29,0.9,9.46,-10.05,9.38
0.06,-0.28,0.91,8.61,-11.37,8.54
0.06,-0.27,0.91,6.51,-11.76,7.35
0.04,-0.28,0.92,3.42,-11.28,5.91
0.03,-0.3,0.93,-0.35,-10.02,4.19
0.03,-0.3,0.93,-0.35,-10.02,4.19
0.01,-0.33,0.94,-4.34,-7.8,2.2
-0.02,-0.35,0.94,-8.02,-4.65,0.1
-0.04,-0.37,0.94,-10.94,-1.0,-2.01
-0.05,-0.38,0.93,-12.74,2.77,-3.98
-0.06,-0.38,0.94,-13.22,6.31,-5.51
-0.06,-0.38,0.94,-13.22,6.31,-5.51
-0.07,-0.37,0.94,-12.5,9.26,-6.39
-0.09,-0.35,0.94,-10.88,11.35,-6.64
-0.11,-0.34,0.94,-8.53,12.43,-6.28
-0.12,-0.32,0.93,-5.54,12.34,-5.42
-0.12,-0.3,0.93,-2.17,11.04,-4.25
-0.12,-0.3,0.93,-2.17,11.04,-4.25
-0.1,-0.27,0.94,1.27,8.8,-2.87
-0.08,-0.24,0.94,4.36,5.84,-1.37
-0.06,-0.22,0.94,6.68,2.4,0.15
-0.05,-0.2,0.94,7.98,-1.2,1.47
-0.02,-0.2,0.93,8.1,-4.79,2.52
-0.02,-0.2,0.93,8.1,-4.79,2.52
0.01,-0.22,0.91,7.1,-8.16,3.26
0.04,-0.23,0.89,5.22,-11.0,3.82
0.05,-0.24,0.88,2.72,-13.1,4.15
0.07,-0.26,0.87,-0.24,-14.41,4.2
0.08,-0.29,0.86,-3.57,-14.85,4.01
0.08,-0.29,0.86,-3.57,-14.85,4.01
0.06,-0.32,0.86,-6.86,-14.1,3.61
0.02,-0.34,0.88,-9.67,-11.87,2.99
-0.02,-0.36,0.89,-11.81,-8.61,2.05
-0.04,-0.37,0.91,-13.24,-4.81,0.75
-0.04,-0.36,0.92,-13.82,-0.56,-0.74
-0.04,-0.36,0.92,-13.82,-0.56,-0.74
-0.06,-0.35,0.94,-13.6,3.85,-2.1
-0.06,-0.35,0.95,-12.84,7.99,-3.15
-0.07,-0.34,0.95,-11.71,11.46,-3.74
-0.07,-0.34,0.94,-10.22,14.05,-3.77
-0.07,-0.35,0.93,-8.34,15.5,-3.26
-0.07,-0.35,0.93,-8.34,15.5,-3.26
-0.06,-0.36,0.91,-6.14,15.6,-2.23
-0.05,-0.35,0.9,-3.68,14.44,-0.89
-0.04,-0.34,0.89,-0.98,12.18,0.53
-0.03,-0.33,0.9,1.66,9.06,1.85
-0.02,-0.31,0.9,3.88,5.49,2.92
-0.02,-0.31,0.9,3.88,5.49,2.92
0.0,-0.28,0.9,5.35,1.83,3.46
0.03,-0.27,0.9,5.81,-1.6,3.52
0.07,-0.26,0.9,5.07,-4.5,3.25
0.09,-0.27,0.89,3.19,-6.52,2.85
0.1,-0.29,0.89,0.32,-7.49,2.32
0.1,-0.29,0.89,0.32,-7.49,2.32
0.09,-0.32,0.88,-3.2,-7.39,1.71
0.06,-0.34,0.88,-6.87,-6.03,0.95
-0.0,-0.37,0.9,-10.07,-3.17,-0.01
-0.04,-0.39,0.92,-12.47,0.79,-1.15
-0.06,-0.41,0.92,-13.99,5.31,-2.4
-0.06,-0.41,0.92,-13.99,5.31,-2.4
-0.07,-0.41,0.93,-14.37,10.13,-3.54
-0.09,-0.41,0.93,-13.45,14.87,-4.34
-0.1,-0.4,0.93,-11.44,19.09,-4.72
-0.12,-0.39,0.93,-8.57,22.41,-4.7
-0.13,-0.37,0.94,-5.02,24.38,-4.3
-0.13,-0.37,0.94,-5.02,24.38,-4.3
-0.12,-0.35,0.94,-1.13,24.9,-3.65
-0.11,-0.33,0.94,2.8,24.17,-2.84
-0.09,-0.32,0.93,6.47,22.29,-1.74
-0.05,-0.32,0.92,9.57,19.32,-0.32
-0.03,-0.32,0.91,11.98,15.59,1.31
-0.03,-0.32,0.91,11.98,15.59,1.31
-0.01,-0.32,0.9,13.69,11.41,2.9
-0.01,-0.32,0.89,14.58,7.07,4.07
0.0,-0.32,0.88,14.63,2.82,4.61
0.02,-0.31,0.87,13.94,-1.05,4.42
0.04,-0.3,0.88,12.47,-4.27,3.57
0.04,-0.3,0.88,12.47,-4.27,3.57
0.05,-0.3,0.88,10.18,-6.44,2.24
0.04,-0.29,0.89,7.05,-7.26,0.57
0.0,-0.3,0.91,3.28,-6.42,-1.37
-0.04,-0.31,0.93,-0.72,-3.99,-3.53
-0.07,-0.32,0.93,-4.56,-0.38,-5.94
-0.07,-0.32,0.93,-4.56,-0.38,-5.94
-0.1,-0.33,0.94,-7.85,4.05,-8.36
-0.13,-0.33,0.95,-10.1,8.98,-10.38
-0.15,-0.32,0.97,-11.33,13.69,-11.62
-0.17,-0.31,0.97,-11.76,17.67,-12.05
-0.17,-0.31,0.97,-11.28,20.66,-11.68
-0.18,-0.32,0.96,-11.28,20.66,-11.68
-0.19,-0.32,0.95,-9.83,22.12,-10.61
-0.18,-0.31,0.92,-7.4,21.89,-9.01
-0.16,-0.31,0.91,-3.97,20.36,-6.85
-0.14,-0.3,0.93,0.05,17.24,-4.2
-0.14,-0.3,0.93,4.06,12.8,-1.38
-0.1,-0.29,0.91,4.06,12.8,-1.38
-0.06,-0.28,0.88,7.84,7.84,1.5
-0.02,-0.28,0.88,11.13,2.64,4.37
0.01,-0.29,0.88,13.64,-2.52,7.02
0.03,-0.29,0.87,15.2,-7.25,9.18
0.03,-0.29,0.87,15.2,-7.25,9.18
0.04,-0.29,0.86,15.85,-11.4,10.66
0.05,-0.28,0.87,15.59,-14.87,11.25
0.08,-0.28,0.86,14.21,-17.42,11.02
0.09,-0.29,0.86,11.76,-18.87,10.19
0.1,-0.31,0.87,8.3,-19.19,8.83
0.1,-0.31,0.87,8.3,-19.19,8.83
0.09,-0.33,0.87,4.1,-18.32,7.02
0.06,-0.35,0.88,-0.43,-16.04,4.85
0.02,-0.38,0.89,-4.77,-12.53,2.37
0.0,-0.41,0.9,-8.57,-8.26,-0.34
-0.0,-0.43,0.89,-11.57,-3.52,-3.09
-0.0,-0.43,0.89,-11.57,-3.52,-3.09
-0.02,-0.44,0.89,-13.34,1.56,-5.63
-0.05,-0.42,0.89,-13.76,6.52,-7.77
-0.06,-0.4,0.9,-13.03,10.77,-9.44
-0.07,-0.38,0.91,-11.5,14.04,-10.41
-0.08,-0.35,0.92,-9.35,16.32,-10.51
-0.08,-0.35,0.92,-9.35,16.32,-10.51
-0.1,-0.33,0.93,-6.84,17.52,-9.75
-0.12,-0.3,0.93,-4.24,17.42,-8.38
-0.14,-0.28,0.93,-1.74,16.16,-6.78
-0.12,-0.28,0.93,0.55,13.96,-5.05
-0.09,-0.27,0.93,2.4,11.05,-3.23
-0.09,-0.27,0.93,2.4,11.05,-3.23
-0.06,-0.28,0.93,3.66,7.87,-1.45
-0.04,-0.29,0.93,4.31,4.81,0.23
-0.03,-0.3,0.92,4.38,2.12,1.73
-0.04,-0.31,0.91,4.06,0.04,2.98
-0.05,-0.31,0.91,3.46,-1.3,3.8
-0.05,-0.31,0.91,3.46,-1.3,3.8
-0.05,-0.32,0.92,2.7,-1.89,4.1
-0.08,-0.31,0.94,1.81,-1.62,3.79
-0.11,-0.3,0.96,0.94,-0.5,2.95
-0.11,-0.3,0.97,-0.08,1.08,1.81
-0.09,-0.31,0.97,-1.37,2.77,0.67
-0.09,-0.31,0.97,-1.37,2.77,0.67
-0.08,-0.32,0.97,-2.63,4.54,-0.11
-0.09,-0.34,0.96,-3.58,6.07,-0.4
-0.1,-0.35,0.94,-4.02,7.0,-0.29
-0.1,-0.37,0.92,-3.83,7.1,0.07
-0.07,-0.38,0.91,-2.96,6.33,0.63
-0.07,-0.38,0.91,-2.96,6.33,0.63
-0.04,-0.4,0.9,-1.46,4.86,1.46
-0.01,-0.41,0.89,0.56,2.96,2.44
0.0,-0.4,0.87,2.89,0.83,3.45
0.01,-0.38,0.86,5.41,-1.32,4.3
0.01,-0.36,0.87,7.79,-3.29,4.83
0.01,-0.36,0.87,7.79,-3.29,4.83
0.02,-0.33,0.88,9.62,-4.96,4.9
0.01,-0.3,0.89,10.51,-6.26,4.4
0.01,-0.27,0.9,10.24,-7.07,3.36
0.01,-0.25,0.91,8.73,-7.23,1.92
-0.0,-0.25,0.92,6.03,-6.61,0.27
-0.0,-0.25,0.92,6.03,-6.61,0.27
-0.01,-0.26,0.93,2.36,-5.15,-1.54
-0.03,-0.29,0.93,-1.85,-2.84,-3.37
-0.05,-0.32,0.92,-5.99,0.18,-5.13
-0.07,-0.36,0.92,-9.4,3.62,-6.65
-0.08,-0.38,0.91,-11.65,7.11,-7.8
-0.08,-0.38,0.91,-11.65,7.11,-7.8
-0.1,-0.39,0.91,-12.58,10.31,-8.49
-0.11,-0.39,0.91,-12.21,12.89,-8.67
-0.12,-0.38,0.91,-10.66,14.58,-8.35
-0.13,-0.36,0.91,-8.13,15.22,-7.53
-0.13,-0.34,0.91,-4.87,14.76,-6.36
-0.13,-0.34,0.91,-4.87,14.76,-6.36
-0.12,-0.31,0.91,-1.25,13.2,-4.96
-0.1,-0.28,0.92,2.27,10.71,-3.3
-0.07,-0.27,0.92,5.25,7.55,-1.49
-0.04,-0.27,0.92,7.32,4.04,0.39
-0.01,-0.28,0.91,8.42,0.6,2.18
-0.01,-0.28,0.91,8.42,0.6,2.18
0.01,-0.29,0.89,8.8,-2.37,3.72
0.03,-0.3,0.87,8.62,-4.65,4.82
0.03,-0.31,0.86,7.98,-6.17,5.39
0.04,-0.31,0.86,6.94,-6.89,5.43
0.04,-0.3,0.86,5.46,-6.8,4.94
0.04,-0.3,0.86,5.46,-6.8,4.94
0.03,-0.3,0.87,3.53,-5.93,4.04
0.02,-0.31,0.89,1.18,-4.22,2.85
-0.02,-0.32,0.91,-1.38,-1.47,1.55
-0.07,-0.33,0.93,-3.79,2.25,0.2
-0.11,-0.35,0.94,-5.84,6.33,-1.14
-0.11,-0.35,0.94,-5.84,6.33,-1.14
-0.12,-0.36,0.94,-7.32,10.35,-2.36
-0.12,-0.37,0.95,-7.93,14.08,-3.19
-0.12,-0.37,0.96,-7.64,17.21,-3.47
-0.14,-0.37,0.96,-6.55,19.42,-3.18
-0.15,-0.37,0.95,-4.78,20.41,-2.39
-0.15,-0.37,0.95,-4.78,20.41,-2.39
-0.15,-0.37,0.94,-2.4,20.03,-1.14
-0.14,-0.37,0.94,0.47,18.38,0.43
-0.12,-0.36,0.93,3.6,15.62,2.19
-0.09,-0.36,0.93,6.74,12.02,3.97
-0.06,-0.35,0.92,9.55,7.85,5.58
-0.06,-0.35,0.92,9.55,7.85,5.58
-0.03,-0.34,0.91,11.76,3.49,6.9
-0.01,-0.34,0.91,13.24,-0.67,7.79
0.01,-0.33,0.9,13.87,-4.3,8.16
0.02,-0.32,0.9,13.66,-7.24,7.9
0.04,-0.31,0.9,12.51,-9.35,7.05
0.04,-0.31,0.9,12.51,-9.35,7.05
0.06,-0.31,0.89,10.4,-10.51,5.78
0.06,-0.32,0.89,7.45,-10.67,4.17
0.04,-0.33,0.89,3.98,-9.64,2.4
-0.0,-0.36,0.89,0.33,-7.36,0.54
-0.03,-0.39,0.9,-3.06,-4.42,-1.39
-0.03,-0.39,0.9,-3.06,-4.42,-1.39
-0.04,-0.41,0.9,-5.81,-1.01,-3.36
-0.07,-0.41,0.91,-7.55,2.94,-5.1
-0.12,-0.39,0.93,-8.07,7.08,-6.45
-0.17,-0.36,0.96,-7.53,11.05,-7.42
-0.2,-0.34,0.98,-6.26,14.44,-7.91
-0.2,-0.34,0.98,-6.26,14.44,-7.91
-0.21,-0.31,0.99,-4.54,16.85,-7.74
-0.22,-0.29,1.0,-2.42,17.96,-6.84
-0.23,-0.27,1.0,-0.04,17.46,-5.22
-0.23,-0.26,0.99,2.32,15.44,-2.99
-0.22,-0.26,0.97,4.59,11.99,-0.32
-0.22,-0.26,0.97,4.59,11.99,-0.32
-0.19,-0.27,0.96,6.85,7.22,2.5
-0.14,-0.28,0.94,8.94,1.31,5.19
-0.08,-0.29,0.91,10.62,-5.29,7.71
-0.03,-0.3,0.9,11.76,-12.18,10.03
0.01,-0.31,0.89,12.31,-18.95,11.96
0.01,-0.31,0.89,12.31,-18.95,11.96
0.05,-0.31,0.87,12.09,-25.07,13.25
0.07,-0.32,0.85,11.2,-29.98,13.83
0.08,-0.33,0.85,9.58,-33.71,13.65
0.1,-0.34,0.84,7.2,-36.16,12.68
0.11,-0.35,0.83,4.26,-36.8,11.12
0.11,-0.35,0.83,4.26,-36.8,11.12
0.11,-0.36,0.84,1.09,-35.5,9.27
0.07,-0.38,0.87,-2.05,-32.13,7.18
0.02,-0.39,0.89,-4.94,-26.82,4.79
-0.02,-0.39,0.92,-7.28,-20.26,2.24
-0.08,-0.37,0.95,-8.78,-12.87,-0.27
-0.08,-0.37,0.95,-8.78,-12.87,-0.27
-0.15,-0.35,0.98,-9.22,-5.08,-2.54
-0.2,-0.32,0.99,-8.79,2.3,-4.29
-0.24,-0.3,1.0,-7.59,8.61,-5.45
-0.26,-0.28,1.01,-5.55,13.44,-5.97
-0.26,-0.26,1.02,-2.89,16.16,-5.85
-0.26,-0.26,1.02,-2.89,16.16,-5.85
-0.25,-0.24,1.02,-0.05,16.53,-5.19
-0.23,-0.23,1.0,2.85,14.68,-3.92
-0.2,-0.22,0.99,5.8,11.02,-1.94
-0.17,-0.22,0.98,8.64,6.09,0.6
-0.13,-0.23,0.96,11.13,0.34,3.5
-0.13,-0.23,0.96,11.13,0.34,3.5
-0.07,-0.25,0.94,13.02,-5.84,6.4
-0.01,-0.27,0.91,14.31,-11.89,9.04
0.03,-0.3,0.89,15.22,-17.3,11.36
0.06,-0.31,0.89,15.77,-21.86,13.21
0.09,-0.32,0.88,15.75,-25.41,14.4
0.09,-0.32,0.88,15.75,-25.41,14.4
0.1,-0.33,0.86,15.11,-27.65,14.87
0.1,-0.33,0.85,13.94,-28.35,14.68
0.1,-0.34,0.85,12.31,-27.59,13.77
0.1,-0.35,0.86,10.27,-25.66,12.3
0.1,-0.36,0.87,7.84,-22.8,10.44
0.1,-0.36,0.87,7.84,-22.8,10.44
0.1,-0.38,0.87,5.16,-19.21,8.35
0.08,-0.41,0.86,2.59,-15.14,6.23
0.05,-0.43,0.86,0.61,-10.79,4.18
0.01,-0.43,0.87,-0.46,-6.42,2.27
-0.01,-0.42,0.88,-0.63,-2.39,0.59
-0.01,-0.42,0.88,-0.63,-2.39,0.59
-0.01,-0.42,0.89,-0.11,0.94,-0.82
-0.01,-0.41,0.9,1.04,3.5,-1.77
-0.03,-0.39,0.89,2.83,5.39,-2.23
-0.06,-0.37,0.9,5.23,6.58,-2.33
-0.07,-0.35,0.91,7.95,6.86,-2.25
-0.07,-0.35,0.91,7.95,6.86,-2.25
-0.04,-0.33,0.91,10.52,6.1,-2.07
-0.02,-0.32,0.91,12.69,4.75,-1.75
-0.03,-0.29,0.91,14.56,3.22,-1.35
-0.03,-0.27,0.92,16.01,1.69,-1.1
-0.03,-0.26,0.92,16.74,0.14,-1.15
-0.03,-0.26,0.92,16.74,0.14,-1.15
-0.01,-0.24,0.93,16.62,-1.17,-1.5
-0.02,-0.24,0.94,15.86,-1.8,-2.06
-0.04,-0.23,0.95,14.64,-1.55,-2.76
-0.05,-0.24,0.96,12.99,-0.66,-3.52
-0.05,-0.25,0.95,11.08,0.69,-4.27
-0.05,-0.25,0.95,11.08,0.69,-4.27
-0.06,-0.27,0.94,9.33,2.35,-4.87
-0.06,-0.28,0.94,8.03,4.04,-5.21
-0.06,-0.29,0.93,7.27,5.48,-5.26
-0.06,-0.31,0.92,7.11,6.47,-5.0
-0.06,-0.33,0.91,7.55,6.77,-4.45
-0.06,-0.33,0.91,7.55,6.77,-4.45
-0.04,-0.35,0.89,8.54,6.13,-3.64
-0.01,-0.36,0.87,10.1,4.65,-2.65
0.02,-0.37,0.87,12.18,2.54,-1.53
0.06,-0.37,0.86,14.51,0.04,-0.32
0.09,-0.38,0.86,16.83,-2.49,0.89
0.09,-0.38,0.86,16.83,-2.49,0.89
0.1,-0.39,0.85,18.94,-4.83,2.01
0.11,-0.39,0.85,20.71,-6.84,2.88
0.1,-0.38,0.85,22.12,-8.4,3.27
0.08,-0.37,0.87,23.27,-9.07,3.05
0.03,-0.35,0.9,24.25,-8.54,2.24
0.03,-0.35,0.9,24.25,-8.54,2.24
-0.0,-0.31,0.93,24.84,-7.1,0.82
-0.02,-0.27,0.96,24.73,-5.03,-1.14
-0.05,-0.24,1.0,24.0,-2.2,-3.38
-0.08,-0.23,1.03,22.77,1.19,-5.43
-0.11,-0.22,1.05,21.07,4.53,-6.94
-0.11,-0.22,1.05,21.07,4.53,-6.94
-0.13,-0.22,1.05,19.08,7.36,-7.86
-0.15,-0.24,1.04,17.3,9.45,-8.22
-0.16,-0.28,1.03,16.24,10.65,-8.1
-0.17,-0.31,1.02,16.31,10.8,-7.61
-0.16,-0.33,1.0,17.76,9.9,-6.84
-0.16,-0.33,1.0,17.76,9.9,-6.84
-0.15,-0.34,0.99,20.61,8.04,-5.91
-0.12,-0.33,0.98,24.71,5.39,-4.84
-0.09,-0.31,0.98,29.72,2.22,-3.61
-0.06,-0.28,0.97,35.1,-1.2,-2.33
-0.05,-0.23,0.97,40.27,-4.71,-1.16
-0.05,-0.23,0.97,40.27,-4.71,-1.16
-0.03,-0.2,0.96,44.75,-8.25,-0.25
0.0,-0.18,0.96,48.2,-11.68,0.4
0.02,-0.16,0.96,50.49,-14.86,0.76
0.03,-0.14,0.95,51.52,-17.49,0.63
0.04,-0.12,0.94,51.35,-19.42,0.06
0.04,-0.12,0.94,51.35,-19.42,0.06
0.05,-0.11,0.93,50.06,-20.82,-0.82
0.07,-0.12,0.92,47.65,-21.68,-2.04
0.09,-0.13,0.92,44.24,-21.96,-3.44
0.09,-0.15,0.89,40.2,-21.63,-4.91
0.09,-0.18,0.87,36.2,-20.39,-6.37
0.09,-0.18,0.87,36.2,-20.39,-6.37
0.09,-0.2,0.87,32.69,-18.3,-7.76
0.09,-0.23,0.88,29.86,-15.55,-9.15
0.09,-0.24,0.88,27.79,-12.26,-10.55
0.08,-0.25,0.89,26.68,-8.43,-11.86
0.06,-0.25,0.91,26.65,-4.13,-12.9
0.06,-0.25,0.91,26.65,-4.13,-12.9
0.03,-0.24,0.93,27.54,0.36,-13.53
0.02,-0.23,0.95,29.08,4.68,-13.72
-0.0,-0.23,0.96,31.09,8.63,-13.47
-0.02,-0.23,0.97,33.62,12.13,-12.82
-0.04,-0.23,0.98,36.67,15.04,-11.87
-0.04,-0.23,0.98,36.67,15.04,-11.87
-0.05,-0.23,1.0,40.18,17.05,-10.78
-0.07,-0.21,1.01,43.98,18.08,-9.72
-0.1,-0.18,1.01,47.88,18.25,-8.8
-0.13,-0.14,1.02,51.66,17.43,-8.17
-0.13,-0.09,1.04,54.87,15.41,-7.99
-0.13,-0.09,1.04,54.87,15.41,-7.99
-0.11,-0.04,1.06,57.03,12.38,-8.25
-0.1,0.02,1.06,57.85,8.68,-8.81
-0.09,0.07,1.06,57.13,4.46,-9.7
-0.07,0.09,1.05,54.65,-0.13,-10.89
-0.02,0.09,1.03,50.48,-4.81,-12.09
-0.02,0.09,1.03,50.48,-4.81,-12.09
0.02,0.07,1.0,45.05,-9.14,-13.1
0.05,0.04,0.97,39.0,-12.82,-13.77
0.07,-0.0,0.93,32.91,-15.69,-14.13
0.1,-0.04,0.89,27.37,-17.69,-14.23
0.11,-0.08,0.85,22.9,-18.75,-14.11
0.11,-0.08,0.85,22.9,-18.75,-14.11
0.13,-0.1,0.83,19.76,-18.83,-13.81
0.13,-0.1,0.82,17.98,-17.84,-13.35
0.13,-0.1,0.83,17.43,-15.75,-12.7
0.13,-0.1,0.84,17.85,-12.7,-11.9
0.14,-0.09,0.85,18.93,-8.79,-10.92
0.14,-0.09,0.85,18.93,-8.79,-10.92
0.12,-0.08,0.88,20.44,-4.1,-9.65
0.08,-0.06,0.91,22.09,1.04,-8.26
0.04,-0.05,0.94,23.59,6.2,-6.92
0.01,-0.05,0.97,24.78,10.97,-5.7
-0.01,-0.05,1.01,25.54,15.11,-4.56
-0.01,-0.05,1.01,25.54,15.11,-4.56
-0.02,-0.06,1.04,25.77,18.46,-3.54
-0.04,-0.08,1.06,25.6,20.9,-2.57
-0.05,-0.11,1.07,25.24,22.35,-1.66
-0.06,-0.13,1.08,24.9,22.81,-0.88
-0.07,-0.16,1.09,24.74,22.2,-0.23
-0.07,-0.16,1.09,24.74,22.2,-0.23
-0.06,-0.19,1.1,24.91,20.61,0.23
-0.05,-0.21,1.09,25.59,18.2,0.47
-0.03,-0.21,1.07,26.98,15.28,0.36
-0.02,-0.19,1.06,28.98,12.05,-0.1
-0.02,-0.16,1.06,31.36,8.61,-0.85
-0.02,-0.16,1.06,31.36,8.61,-0.85
-0.01,-0.12,1.05,33.75,5.15,-1.89
-0.0,-0.06,1.03,35.9,1.85,-3.2
0.0,-0.01,1.01,37.6,-1.21,-4.74
0.01,0.05,0.99,38.61,-3.97,-6.43
0.01,0.1,0.97,38.81,-6.42,-8.19
0.01,0.1,0.97,38.81,-6.42,-8.19
0.02,0.15,0.96,38.08,-8.41,-9.89
0.03,0.18,0.95,36.36,-9.8,-11.35
0.04,0.2,0.94,33.75,-10.43,-12.41
0.06,0.18,0.93,30.35,-10.25,-12.94
0.08,0.16,0.92,26.47,-9.16,-12.83
0.08,0.16,0.92,26.47,-9.16,-12.83
0.07,0.12,0.92,22.58,-7.09,-12.2
0.04,0.09,0.92,19.17,-4.08,-11.2
0.01,0.05,0.93,16.56,-0.42,-9.99
0.01,0.02,0.93,14.85,3.44,-8.61
0.01,-0.01,0.95,14.13,7.3,-7.01
0.01,-0.01,0.95,14.13,7.3,-7.01
0.01,-0.03,0.98,14.39,11.12,-5.06
-0.0,-0.06,1.0,15.45,14.76,-2.78
-0.03,-0.08,1.03,17.14,18.11,-0.28
-0.05,-0.11,1.06,19.39,21.0,2.17
-0.08,-0.13,1.08,22.15,23.29,4.31
-0.08,-0.13,1.08,22.15,23.29,4.31
-0.1,-0.15,1.1,25.43,24.81,5.97
-0.12,-0.14,1.12,29.13,25.45,6.94
