ax,ay,az,gx,gy,gz
0.08,0.2,1.03,74.65,78.13,-19.42
0.08,0.2,1.03,74.65,78.13,-19.42
0.09,0.21,1.04,74.68,76.46,-18.1
0.1,0.21,1.04,73.13,75.45,-16.47
0.1,0.2,1.03,70.18,75.09,-14.73
0.09,0.18,1.02,66.21,75.31,-13.03
0.08,0.15,0.99,61.83,76.13,-11.47
0.08,0.15,0.99,61.83,76.13,-11.47
0.06,0.12,0.97,57.59,77.46,-10.08
0.05,0.1,0.95,53.89,79.18,-8.81
0.02,0.08,0.94,51.03,81.06,-7.67
-0.01,0.07,0.93,49.17,82.77,-6.63
-0.03,0.07,0.92,48.35,83.94,-5.55
-0.03,0.07,0.92,48.35,83.94,-5.55
-0.06,0.07,0.92,48.46,84.34,-4.24
-0.08,0.08,0.93,49.29,83.89,-2.66
-0.09,0.09,0.94,50.7,82.43,-0.8
-0.1,0.09,0.95,52.56,79.97,1.33
-0.1,0.1,0.96,54.72,76.63,3.74
-0.1,0.1,0.96,54.72,76.63,3.74
-0.1,0.11,0.98,57.07,72.65,6.28
-0.1,0.13,0.99,59.45,68.36,8.72
-0.08,0.15,1.0,61.56,64.03,10.98
-0.07,0.17,1.02,63.16,59.95,12.99
-0.06,0.18,1.03,64.02,56.45,14.74
-0.06,0.18,1.03,64.02,56.45,14.74
-0.05,0.19,1.05,63.91,53.71,16.21
-0.03,0.18,1.07,62.66,51.79,17.41
-0.03,0.17,1.09,60.23,50.67,18.46
-0.03,0.14,1.11,56.72,50.21,19.42
-0.05,0.11,1.11,52.34,50.13,20.34
-0.05,0.11,1.11,52.34,50.13,20.34
-0.09,0.08,1.11,47.51,50.15,21.06
-0.11,0.05,1.1,42.73,50.14,21.44
-0.13,0.03,1.09,38.43,49.86,21.43
-0.14,0.02,1.08,34.81,49.13,21.23
-0.15,0.02,1.08,31.9,47.82,21.05
-0.15,0.02,1.08,31.9,47.82,21.05
-0.16,0.02,1.09,29.65,45.94,20.9
-0.18,0.03,1.11,27.92,43.67,20.74
-0.21,0.02,1.15,26.19,41.23,20.4
-0.24,-0.0,1.18,23.99,38.81,19.37
-0.25,-0.04,1.19,21.23,36.58,17.21
-0.25,-0.04,1.19,21.23,36.58,17.21
-0.24,-0.08,1.19,18.14,34.79,13.86
-0.2,-0.12,1.19,15.06,33.71,9.69
-0.16,-0.16,1.18,12.2,33.33,5.25
-0.14,-0.18,1.17,9.76,33.5,1.07
-0.12,-0.2,1.17,7.9,34.16,-2.67
-0.12,-0.2,1.17,7.9,34.16,-2.67
-0.12,-0.22,1.17,6.55,35.4,-5.95
-0.13,-0.23,1.17,5.43,37.12,-8.82
-0.16,-0.26,1.18,4.42,39.09,-11.43
-0.17,-0.29,1.2,3.49,41.06,-13.89
-0.17,-0.32,1.21,2.67,43.09,-16.27
-0.17,-0.32,1.21,2.67,43.09,-16.27
-0.16,-0.35,1.21,2.03,45.07,-18.41
-0.17,-0.37,1.2,1.58,46.89,-20.15
-0.19,-0.38,1.18,1.52,48.34,-21.49
-0.22,-0.39,1.16,2.07,49.43,-22.58
-0.24,-0.39,1.14,3.31,50.19,-23.67
-0.24,-0.39,1.14,3.31,50.19,-23.67
-0.27,-0.4,1.15,5.16,50.63,-24.97
-0.29,-0.4,1.16,7.39,51.01,-26.93
-0.31,-0.4,1.16,9.77,51.46,-29.77
-0.34,-0.38,1.15,12.43,51.91,-33.45
-0.38,-0.33,1.14,15.59,52.28,-37.77
-0.38,-0.33,1.14,15.59,52.28,-37.77
-0.45,-0.25,1.13,19.2,52.3,-42.64
-0.53,-0.15,1.13,22.78,51.5,-48.12
-0.59,-0.05,1.12,25.75,49.24,-54.35
-0.63,0.05,1.13,27.57,45.12,-61.27
-0.64,0.13,1.16,27.85,39.2,-68.71
-0.64,0.13,1.16,27.85,39.2,-68.71
-0.6,0.19,1.21,26.14,31.6,-76.27
-0.55,0.23,1.22,21.76,22.66,-83.42
-0.5,0.26,1.19,14.35,12.68,-89.67
-0.47,0.27,1.14,4.32,1.87,-94.92
-0.45,0.24,1.06,-7.38,-9.19,-99.44
-0.45,0.24,1.06,-7.38,-9.19,-99.44
-0.42,0.19,0.97,-19.58,-19.95,-103.56
-0.39,0.14,0.89,-31.16,-30.08,-107.54
-0.34,0.1,0.83,-41.35,-39.19,-111.53
-0.28,0.07,0.78,-49.6,-46.84,-115.52
-0.24,0.04,0.74,-55.62,-52.69,-119.35
-0.24,0.04,0.74,-55.62,-52.69,-119.35
-0.22,0.04,0.73,-59.3,-56.39,-123.0
-0.23,0.08,0.73,-60.4,-57.45,-126.55
-0.28,0.13,0.76,-58.72,-55.6,-130.22
-0.32,0.2,0.79,-55.16,-51.32,-134.27
-0.37,0.29,0.82,-51.03,-45.44,-138.68
-0.37,0.29,0.82,-51.03,-45.44,-138.68
-0.4,0.37,0.83,-47.08,-38.69,-143.25
-0.42,0.43,0.84,-43.74,-31.83,-147.68
-0.41,0.47,0.85,-41.55,-25.75,-151.39
-0.4,0.49,0.85,-40.84,-21.05,-153.8
-0.37,0.48,0.83,-41.64,-18.02,-154.41
-0.37,0.48,0.83,-41.64,-18.02,-154.41
-0.35,0.46,0.81,-43.81,-16.86,-153.0
-0.34,0.42,0.77,-46.78,-17.3,-149.85
-0.33,0.36,0.74,-49.69,-19.03,-145.56
-0.31,0.29,0.69,-51.61,-21.63,-140.67
-0.28,0.25,0.65,-51.87,-24.6,-135.49
-0.28,0.25,0.65,-51.87,-24.6,-135.49
-0.25,0.23,0.63,-50.05,-27.3,-130.34
-0.22,0.23,0.62,-45.88,-29.0,-125.57
-0.19,0.24,0.63,-39.4,-29.13,-121.36
-0.17,0.25,0.64,-31.11,-27.5,-117.56
-0.15,0.28,0.68,-21.81,-24.21,-113.86
-0.15,0.28,0.68,-21.81,-24.21,-113.86
-0.16,0.31,0.71,-12.32,-19.45,-110.01
-0.18,0.34,0.73,-3.39,-13.52,-106.12
-0.21,0.36,0.75,4.49,-7.0,-102.33
-0.24,0.38,0.76,10.96,-0.52,-98.68
-0.26,0.39,0.77,15.92,5.5,-95.08
-0.26,0.39,0.77,15.92,5.5,-95.08
-0.27,0.39,0.79,19.29,10.82,-91.49
-0.29,0.4,0.8,21.21,15.24,-88.07
-0.3,0.4,0.82,21.83,18.73,-85.03
-0.32,0.39,0.84,21.47,21.33,-82.54
-0.35,0.4,0.87,20.37,23.19,-80.72
-0.35,0.4,0.87,20.37,23.19,-80.72
-0.38,0.43,0.9,18.81,24.55,-79.86
-0.41,0.47,0.95,17.05,25.66,-79.99
-0.41,0.51,0.99,14.91,26.65,-80.86
-0.41,0.54,1.03,11.61,27.26,-81.95
-0.4,0.56,1.05,6.43,27.12,-82.81
-0.4,0.56,1.05,6.43,27.12,-82.81
-0.38,0.55,1.06,-0.82,26.06,-83.09
-0.34,0.5,1.04,-9.78,24.17,-82.45
-0.31,0.44,1.02,-19.54,21.73,-80.75
-0.28,0.36,0.99,-29.05,19.12,-78.11
-0.25,0.3,0.97,-37.44,16.67,-74.76
-0.25,0.3,0.97,-37.44,16.67,-74.76
-0.23,0.24,0.94,-44.22,14.55,-70.92
-0.22,0.18,0.91,-49.02,12.83,-66.84
-0.21,0.12,0.87,-51.53,11.45,-62.72
-0.2,0.08,0.85,-51.42,10.4,-58.63
-0.2,0.08,0.85,-48.43,9.86,-54.55
-0.18,0.05,0.84,-48.43,9.86,-54.55
-0.16,0.03,0.86,-42.63,10.04,-50.4
-0.16,0.04,0.89,-34.56,10.97,-46.21
-0.19,0.08,0.93,-24.95,12.63,-42.34
-0.24,0.12,0.97,-14.69,14.63,-39.26
-0.24,0.12,0.97,-4.69,16.3,-37.18
-0.28,0.17,0.99,-4.69,16.3,-37.18
-0.3,0.22,1.02,4.49,17.24,-35.95
-0.29,0.27,1.04,12.47,17.36,-35.22
-0.28,0.31,1.05,18.9,16.64,-34.63
-0.25,0.35,1.07,23.48,15.06,-33.85
-0.25,0.35,1.07,23.48,15.06,-33.85
-0.22,0.37,1.09,26.07,12.78,-32.54
-0.19,0.38,1.1,26.62,10.2,-30.56
-0.16,0.37,1.11,25.29,7.69,-27.88
-0.15,0.34,1.11,22.55,5.53,-24.63
-0.15,0.31,1.11,19.23,3.96,-21.02
-0.15,0.31,1.11,19.23,3.96,-21.02
-0.17,0.29,1.1,16.16,3.16,-17.34
-0.2,0.3,1.1,13.95,3.1,-13.87
-0.23,0.32,1.09,12.72,3.51,-10.86
-0.25,0.34,1.11,12.27,3.93,-8.53
-0.25,0.37,1.13,12.11,4.04,-6.72
-0.25,0.37,1.13,12.11,4.04,-6.72
-0.24,0.4,1.14,11.66,3.6,-5.17
-0.23,0.42,1.16,10.76,2.47,-3.76
-0.19,0.42,1.19,9.51,0.71,-2.33
-0.14,0.41,1.24,7.77,-1.39,-0.5
-0.12,0.4,1.27,5.38,-3.47,1.98
-0.12,0.4,1.27,5.38,-3.47,1.98
-0.15,0.4,1.29,2.47,-5.32,4.87
-0.21,0.4,1.29,-0.39,-6.81,7.66
-0.28,0.42,1.28,-2.63,-7.97,9.94
-0.35,0.45,1.28,-4.02,-8.95,11.64
-0.4,0.5,1.28,-4.75,-10.04,12.78
-0.4,0.5,1.28,-4.75,-10.04,12.78
-0.43,0.55,1.27,-5.26,-11.65,13.54
-0.44,0.59,1.25,-5.97,-14.15,14.16
-0.44,0.62,1.22,-7.21,-17.71,14.97
-0.44,0.62,1.18,-8.94,-22.41,16.2
-0.42,0.61,1.14,-10.84,-28.07,17.98
-0.42,0.61,1.14,-10.84,-28.07,17.98
-0.38,0.57,1.11,-12.27,-34.31,20.37
-0.35,0.54,1.07,-12.69,-40.64,23.53
-0.33,0.53,1.04,-11.58,-46.56,27.47
-0.33,0.52,1.01,-8.97,-51.86,31.76
-0.32,0.52,0.98,-5.09,-56.61,36.35
-0.32,0.52,0.98,-5.09,-56.61,36.35
-0.31,0.55,0.96,-0.19,-60.58,41.36
-0.31,0.55,0.92,5.23,-63.89,46.42
-0.3,0.56,0.9,11.5,-66.51,51.37
-0.31,0.65,0.98,17.58,-68.3,55.37
-0.29,0.64,0.95,20.35,-70.29,58.51
-0.29,0.64,0.95,20.35,-70.29,58.51
-0.26,0.62,0.89,22.34,-71.61,62.82
-0.27,0.57,0.87,23.79,-71.74,67.88
-0.26,0.49,0.87,24.76,-72.05,73.21
-0.23,0.44,0.86,25.5,-71.85,78.48
-0.2,0.39,0.86,25.91,-71.12,83.92
-0.2,0.39,0.86,25.91,-71.12,83.92
-0.2,0.35,0.86,25.89,-69.84,89.57
-0.22,0.31,0.88,25.02,-68.08,94.88
-0.25,0.28,0.88,22.88,-66.03,98.98
-0.25,0.25,0.87,19.45,-63.78,101.41
-0.23,0.2,0.87,15.18,-61.38,102.47
-0.23,0.2,0.87,15.18,-61.38,102.47
-0.2,0.14,0.88,10.66,-58.56,102.81
-0.16,0.09,0.91,6.0,-55.1,102.78
-0.13,0.06,0.93,0.89,-50.88,102.47
-0.12,0.04,0.94,-4.91,-45.92,102.04
-0.12,-0.0,0.94,-11.6,-40.39,101.59
-0.12,-0.0,0.94,-11.6,-40.39,101.59
-0.13,-0.06,0.92,-18.99,-34.69,101.06
-0.13,-0.12,0.88,-26.58,-29.1,100.34
-0.13,-0.18,0.84,-33.74,-23.75,99.54
-0.15,-0.22,0.79,-39.93,-18.78,98.69
-0.16,-0.26,0.75,-44.7,-14.26,97.53
-0.16,-0.26,0.75,-44.7,-14.26,97.53
-0.16,-0.3,0.74,-47.75,-10.37,96.01
-0.14,-0.34,0.74,-49.23,-7.15,94.33
-0.12,-0.38,0.77,-49.6,-4.47,92.63
-0.09,-0.42,0.78,-49.27,-2.29,90.98
-0.06,-0.45,0.79,-48.32,-0.42,89.39
-0.06,-0.45,0.79,-48.32,-0.42,89.39
-0.04,-0.49,0.78,-46.63,1.29,87.9
-0.04,-0.53,0.77,-44.04,3.05,86.33
-0.05,-0.55,0.75,-40.41,5.13,84.54
-0.07,-0.55,0.73,-35.74,7.59,82.36
-0.1,-0.53,0.72,-30.06,10.2,79.64
-0.1,-0.53,0.72,-30.06,10.2,79.64
-0.1,-0.48,0.73,-23.69,12.84,76.45
-0.09,-0.44,0.75,-17.23,15.38,73.08
-0.07,-0.4,0.8,-11.45,17.72,69.93
-0.06,-0.38,0.84,-6.84,19.88,67.29
-0.07,-0.37,0.87,-3.6,21.78,65.43
-0.07,-0.37,0.87,-3.6,21.78,65.43
-0.11,-0.35,0.89,-1.57,23.35,64.37
-0.16,-0.33,0.89,-0.5,24.34,63.85
-0.21,-0.31,0.89,-0.06,24.39,63.62
-0.24,-0.29,0.89,-0.07,23.3,63.44
-0.26,-0.27,0.89,-0.54,21.11,63.08
-0.26,-0.27,0.89,-0.54,21.11,63.08
-0.26,-0.26,0.9,-1.34,18.02,62.41
-0.25,-0.26,0.91,-2.43,14.44,61.32
-0.22,-0.27,0.91,-3.79,10.78,59.85
-0.18,-0.28,0.91,-5.26,7.61,58.24
-0.14,-0.29,0.92,-6.67,5.42,56.74
-0.14,-0.29,0.92,-6.67,5.42,56.74
-0.12,-0.3,0.93,-7.82,4.54,55.47
-0.13,-0.3,0.93,-8.66,5.1,54.05
-0.15,-0.29,0.92,-9.15,6.94,52.43
-0.18,-0.28,0.91,-9.13,9.75,50.8
-0.21,-0.25,0.91,-8.7,13.04,49.05
-0.21,-0.25,0.91,-8.7,13.04,49.05
-0.22,-0.23,0.92,-8.13,16.39,47.12
-0.21,-0.2,0.94,-7.78,19.37,45.23
-0.22,-0.18,0.95,-7.83,21.65,43.7
-0.22,-0.18,0.95,-8.32,22.96,42.44
-0.23,-0.19,0.94,-8.98,23.2,41.26
-0.23,-0.19,0.94,-8.98,23.2,41.26
-0.24,-0.21,0.93,-9.36,22.46,40.33
-0.26,-0.22,0.92,-9.16,20.86,39.7
-0.27,-0.21,0.92,-8.39,18.48,38.96
-0.24,-0.2,0.93,-7.2,15.63,37.72
-0.21,-0.18,0.93,-5.79,12.73,36.03
-0.21,-0.18,0.93,-5.79,12.73,36.03
-0.18,-0.15,0.94,-4.4,10.2,34.09
-0.16,-0.13,0.94,-3.11,8.33,31.97
-0.14,-0.11,0.95,-1.99,7.21,29.81
-0.11,-0.11,0.97,-1.18,7.04,27.91
-0.1,-0.11,0.99,-0.95,7.86,26.46
-0.1,-0.11,0.99,-0.95,7.86,26.46
-0.1,-0.1,1.02,-1.54,9.61,25.49
-0.13,-0.1,1.03,-3.05,12.11,24.75
-0.16,-0.1,1.03,-5.4,15.01,23.94
-0.19,-0.12,1.01,-8.17,17.81,22.95
-0.21,-0.13,0.99,-10.69,20.19,21.93
-0.21,-0.13,0.99,-10.69,20.19,21.93
-0.22,-0.14,0.97,-12.41,21.92,21.0
-0.22,-0.14,0.98,-13.07,22.83,20.29
-0.22,-0.11,0.99,-12.67,22.87,20.01
-0.23,-0.11,1.03,-11.94,21.94,19.12
-0.11,-0.17,1.02,-10.79,20.83,17.61
-0.11,-0.17,1.02,-10.79,20.83,17.61
-0.16,-0.1,1.06,-9.48,20.02,20.33
-0.24,-0.07,1.12,-9.08,18.48,22.76
-0.21,-0.1,1.09,-8.65,17.57,21.62
-0.16,-0.14,1.08,-8.36,17.29,19.35
-0.16,-0.17,1.09,-8.34,17.18,18.66
-0.16,-0.17,1.09,-8.34,17.18,18.66
-0.19,-0.15,1.08,-8.14,17.63,18.7
-0.21,-0.13,1.07,-7.63,18.2,17.9
-0.2,-0.14,1.06,-6.68,18.52,16.26
-0.21,-0.12,1.06,-5.34,18.77,15.03
-0.22,-0.12,1.07,-4.05,18.66,14.03
-0.22,-0.12,1.07,-4.05,18.66,14.03
-0.21,-0.12,1.06,-2.6,18.15,12.82
-0.21,-0.11,1.07,-0.83,17.43,11.56
-0.22,-0.1,1.09,0.9,16.51,10.45
-0.24,-0.07,1.1,2.33,15.35,9.3
-0.31,0.01,1.13,2.88,13.84,7.7
-0.31,0.01,1.13,2.88,13.84,7.7
-0.21,0.03,1.17,1.27,11.81,3.74
-0.13,-0.09,1.04,-2.31,10.04,2.25
-0.21,-0.02,1.01,-4.08,8.42,4.95
-0.22,-0.07,1.04,-5.07,7.09,4.8
-0.18,-0.04,1.04,-5.19,5.79,3.04
-0.18,-0.04,1.04,-5.19,5.79,3.04
-0.2,-0.01,1.06,-5.64,4.47,2.45
-0.2,-0.01,1.07,-7.05,3.13,2.16
-0.16,-0.05,1.05,-9.2,2.09,1.53
-0.13,-0.08,1.02,-11.25,1.45,1.77
-0.15,-0.09,1.01,-12.48,1.34,2.85
-0.15,-0.09,1.01,-12.48,1.34,2.85
-0.18,-0.08,1.01,-12.74,1.74,3.49
-0.2,-0.08,1.02,-12.48,2.33,3.41
-0.21,-0.09,1.01,-12.22,2.78,3.34
-0.2,-0.11,0.97,-11.58,3.12,3.23
-0.18,-0.12,0.95,-9.84,3.56,3.21
-0.18,-0.12,0.95,-9.84,3.56,3.21
-0.18,-0.09,0.98,-7.18,3.89,3.19
-0.19,-0.05,1.0,-4.47,3.92,2.95
-0.18,-0.03,1.02,-2.48,3.7,2.35
-0.17,-0.02,1.03,-1.64,3.24,1.98
-0.17,-0.02,1.04,-2.08,2.6,1.84
-0.17,-0.02,1.04,-2.08,2.6,1.84
-0.17,-0.03,1.03,-3.53,1.99,1.58
-0.17,-0.05,1.01,-5.56,1.65,1.33
-0.17,-0.05,1.01,-7.83,1.54,1.27
-0.18,-0.05,1.0,-10.13,1.69,1.16
-0.19,-0.06,1.0,-12.44,2.06,0.9
-0.19,-0.06,1.0,-12.44,2.06,0.9
-0.19,-0.07,0.99,-14.81,2.54,0.63
-0.2,-0.09,0.97,-16.94,3.13,0.6
-0.21,-0.12,0.96,-18.4,3.83,0.64
-0.23,-0.14,0.95,-18.85,4.55,0.44
-0.24,-0.15,0.95,-18.24,5.12,-0.14
-0.24,-0.15,0.95,-18.24,5.12,-0.14
-0.24,-0.14,0.97,-16.96,5.45,-0.91
-0.24,-0.1,0.99,-15.71,5.5,-1.43
-0.24,-0.06,1.0,-15.18,5.17,-1.7
-0.24,-0.05,0.99,-15.46,4.42,-2.15
-0.22,-0.07,0.97,-16.08,3.4,-2.79
-0.22,-0.07,0.97,-16.08,3.4,-2.79
-0.21,-0.09,0.95,-16.44,2.34,-3.12
-0.21,-0.09,0.96,-16.25,1.35,-2.96
-0.21,-0.09,0.97,-15.69,0.41,-2.56
-0.21,-0.09,0.99,-15.13,-0.48,-1.99
-0.2,-0.1,1.0,-14.91,-1.28,-1.4
-0.2,-0.1,1.0,-14.91,-1.28,-1.4
-0.2,-0.13,0.99,-14.99,-1.89,-1.03
-0.2,-0.15,0.98,-14.92,-2.15,-0.88
-0.21,-0.16,0.97,-14.36,-2.03,-1.06
-0.22,-0.16,0.97,-13.26,-1.62,-1.57
-0.22,-0.13,0.98,-11.86,-1.0,-2.09
-0.22,-0.13,0.98,-11.86,-1.0,-2.09
-0.21,-0.11,0.98,-10.64,-0.38,-2.29
-0.21,-0.1,0.96,-9.61,0.14,-2.19
-0.21,-0.09,0.95,-8.68,0.53,-2.15
-0.2,-0.11,0.94,-7.75,0.63,-2.14
-0.19,-0.11,0.93,-6.46,0.71,-1.69
-0.19,-0.11,0.93,-6.46,0.71,-1.69
-0.19,-0.09,0.95,-5.13,0.73,-0.88
-0.18,-0.08,0.97,-4.33,0.59,-0.15
-0.18,-0.08,0.97,-4.13,0.37,0.35
-0.18,-0.09,0.97,-4.29,0.16,0.56
-0.2,-0.1,0.95,-4.45,-0.05,0.49
-0.2,-0.1,0.95,-4.45,-0.05,0.49
-0.2,-0.1,0.94,-4.24,-0.29,0.09
-0.2,-0.09,0.95,-3.59,-0.49,-0.69
-0.19,-0.08,0.96,-2.8,-0.73,-1.57
-0.19,-0.06,0.98,-2.28,-1.1,-2.22
-0.19,-0.04,0.98,-2.41,-1.61,-2.51
-0.19,-0.04,0.98,-2.41,-1.61,-2.51
-0.18,-0.04,0.98,-3.19,-2.22,-2.53
-0.17,-0.06,0.98,-4.45,-2.9,-2.5
-0.16,-0.08,0.98,-5.85,-3.44,-2.54
-0.16,-0.11,0.99,-6.98,-3.61,-2.55
-0.17,-0.12,0.98,-7.68,-3.23,-2.49
-0.17,-0.12,0.98,-7.68,-3.23,-2.49
-0.18,-0.13,0.98,-8.0,-2.43,-2.44
-0.19,-0.12,0.98,-8.02,-1.43,-2.57
-0.19,-0.12,0.98,-7.69,-0.29,-2.86
-0.2,-0.11,0.97,-6.91,0.85,-3.12
-0.21,-0.1,0.97,-5.65,1.9,-3.27
-0.21,-0.1,0.97,-5.65,1.9,-3.27
-0.22,-0.09,0.97,-4.0,2.67,-3.32
-0.24,-0.07,0.97,-2.1,3.04,-3.38
-0.24,-0.05,0.98,-0.31,2.95,-3.51
-0.23,-0.04,1.0,0.98,2.36,-3.69
-0.23,-0.03,1.01,1.55,1.39,-3.84
-0.23,-0.03,1.01,1.55,1.39,-3.84
-0.22,-0.03,1.0,1.41,0.3,-3.93
-0.21,-0.02,0.99,0.72,-0.77,-3.98
-0.2,-0.01,0.99,-0.33,-1.63,-3.96
-0.19,0.01,0.99,-1.72,-2.28,-3.92
-0.18,0.01,0.97,-3.37,-2.67,-4.03
-0.18,0.01,0.97,-3.37,-2.67,-4.03
-0.18,0.01,0.96,-5.11,-2.85,-4.34
-0.17,-0.01,0.94,-6.65,-2.76,-4.77
-0.17,-0.03,0.93,-7.78,-2.37,-5.15
-0.16,-0.04,0.93,-8.41,-1.75,-5.32
-0.15,-0.05,0.93,-8.62,-0.96,-5.2
-0.15,-0.05,0.93,-8.62,-0.96,-5.2
-0.16,-0.06,0.94,-8.52,0.01,-4.78
-0.17,-0.07,0.95,-8.07,1.13,-4.17
-0.2,-0.08,0.95,-7.23,2.33,-3.5
-0.22,-0.08,0.94,-5.91,3.43,-3.01
-0.24,-0.08,0.93,-4.03,4.28,-2.8
-0.24,-0.08,0.93,-4.03,4.28,-2.8
-0.26,-0.08,0.93,-1.55,4.77,-2.8
-0.26,-0.06,0.94,1.27,4.81,-2.96
-0.26,-0.03,0.95,4.13,4.38,-3.34
-0.26,-0.01,0.96,6.69,3.56,-3.79
-0.25,0.01,0.97,8.67,2.44,-4.1
-0.25,0.01,0.97,8.67,2.44,-4.1
-0.24,0.02,0.97,9.87,1.16,-4.15
-0.23,0.02,0.97,10.26,-0.05,-3.92
-0.24,0.0,0.97,9.97,-1.09,-3.44
-0.25,-0.02,0.95,9.26,-1.93,-2.85
-0.27,-0.04,0.94,8.41,-2.66,-2.22
-0.27,-0.04,0.94,8.41,-2.66,-2.22
-0.29,-0.06,0.93,7.67,-3.3,-1.63
-0.31,-0.08,0.92,7.22,-3.96,-1.16
-0.32,-0.08,0.9,7.18,-4.69,-1.05
-0.32,-0.09,0.88,7.63,-5.52,-1.28
-0.3,-0.1,0.86,8.7,-6.53,-1.69
-0.3,-0.1,0.86,8.7,-6.53,-1.69
-0.27,-0.09,0.85,10.44,-7.62,-2.05
-0.24,-0.09,0.84,12.68,-8.75,-2.25
-0.22,-0.07,0.85,15.21,-9.82,-2.26
-0.2,-0.05,0.85,17.8,-10.77,-2.06
-0.19,-0.03,0.86,20.25,-11.66,-1.7
-0.19,-0.03,0.86,20.25,-11.66,-1.7
-0.16,-0.01,0.87,22.31,-12.44,-1.12
-0.15,0.01,0.89,23.86,-12.97,-0.29
-0.14,0.03,0.91,24.65,-13.2,0.68
-0.12,0.04,0.93,24.51,-13.07,1.67
-0.1,0.03,0.94,23.34,-12.52,2.71
-0.1,0.03,0.94,23.34,-12.52,2.71
-0.07,0.01,0.95,21.15,-11.5,3.93
-0.05,-0.02,0.96,18.11,-9.93,5.45
-0.05,-0.05,0.98,14.55,-7.68,7.09
-0.06,-0.08,0.98,10.82,-4.69,8.69
-0.08,-0.13,0.98,7.27,-1.11,10.09
-0.08,-0.13,0.98,7.27,-1.11,10.09
-0.11,-0.15,0.99,4.15,2.8,11.16
-0.12,-0.18,0.98,1.68,6.76,11.78
-0.14,-0.19,0.98,0.08,10.44,11.89
-0.16,-0.19,0.98,-0.5,13.7,11.51
-0.16,-0.19,0.98,-0.11,16.41,10.65
-0.17,-0.19,0.99,-0.11,16.41,10.65
-0.18,-0.17,1.0,1.09,18.44,9.42
-0.17,-0.14,1.02,2.68,19.69,8.08
-0.16,-0.12,1.05,4.16,20.2,6.86
-0.14,-0.11,1.06,5.12,20.21,5.89
-0.14,-0.11,1.06,5.36,19.92,5.16
-0.13,-0.11,1.06,5.36,19.92,5.16
-0.12,-0.11,1.06,4.98,19.57,4.66
-0.12,-0.13,1.06,4.26,19.38,4.23
-0.12,-0.14,1.05,3.52,19.45,3.77
-0.11,-0.14,1.05,2.87,19.95,3.23
-0.11,-0.14,1.05,2.87,19.95,3.23
-0.11,-0.14,1.04,2.41,20.88,2.67
-0.12,-0.14,1.04,2.19,21.98,2.12
-0.11,-0.13,1.04,2.17,23.11,1.55
-0.11,-0.13,1.04,2.24,24.31,1.0
-0.11,-0.14,1.04,2.46,25.55,0.58
-0.11,-0.14,1.04,2.46,25.55,0.58
-0.11,-0.15,1.04,2.82,26.72,0.36
-0.11,-0.15,1.03,3.37,27.8,0.26
-0.11,-0.16,1.02,4.23,28.94,0.17
-0.11,-0.17,1.02,5.51,30.2,0.04
-0.11,-0.17,1.03,7.22,31.49,-0.19
-0.11,-0.17,1.03,7.22,31.49,-0.19
-0.1,-0.17,1.02,9.25,33.13,-0.52
-0.11,-0.15,1.03,11.57,35.31,-0.99
-0.1,-0.17,1.03,14.27,38.0,-1.88
-0.1,-0.14,1.03,17.3,41.47,-2.54
-0.13,-0.09,1.05,19.74,45.32,-2.38
-0.13,-0.09,1.05,19.74,45.32,-2.38
-0.16,-0.07,1.02,21.51,49.28,-2.54
-0.17,-0.1,0.99,23.57,53.39,-3.62
-0.19,-0.13,1.0,26.58,57.77,-5.15
-0.22,-0.08,1.04,29.91,62.37,-6.22
-0.28,-0.02,1.05,32.66,66.64,-6.79
-0.28,-0.02,1.05,32.66,66.64,-6.79
-0.33,0.02,1.06,34.93,70.37,-7.47
-0.35,0.04,1.07,36.73,73.28,-8.84
-0.37,0.07,1.08,37.63,75.12,-10.13
-0.39,0.1,1.09,37.46,75.82,-10.86
-0.41,0.12,1.07,36.25,75.36,-11.39
-0.41,0.12,1.07,36.25,75.36,-11.39
-0.41,0.11,1.06,34.42,73.92,-11.68
-0.42,0.11,1.05,32.26,71.65,-11.64
-0.42,0.11,1.04,29.73,68.71,-11.39
-0.42,0.12,1.03,26.85,65.33,-10.88
-0.41,0.12,1.02,23.48,61.65,-10.47
-0.41,0.12,1.02,23.48,61.65,-10.47
-0.4,0.09,1.0,20.03,57.98,-10.24
-0.38,0.06,0.97,16.86,54.74,-10.01
