ax,ay,az,gx,gy,gz
-0.13,-0.03,1.02,7.63,1.38,3.97
-0.13,-0.05,1.01,6.27,0.53,3.98
-0.13,-0.05,1.01,6.27,0.53,3.98
-0.15,-0.08,1.0,4.44,-0.36,4.18
-0.17,-0.1,1.0,2.59,-1.13,4.4
-0.17,-0.12,0.99,1.18,-1.71,4.55
-0.16,-0.13,0.98,0.31,-2.06,4.56
-0.14,-0.13,0.97,-0.03,-2.24,4.42
-0.14,-0.13,0.97,-0.03,-2.24,4.42
-0.12,-0.12,0.96,0.1,-2.23,4.13
-0.1,-0.11,0.96,0.58,-2.13,3.74
-0.09,-0.11,0.96,1.18,-2.06,3.34
-0.09,-0.1,0.96,1.8,-2.09,2.92
-0.09,-0.08,0.96,2.48,-2.21,2.44
-0.09,-0.08,0.96,2.48,-2.21,2.44
-0.1,-0.07,0.98,3.13,-2.31,1.89
-0.12,-0.05,0.99,3.56,-2.4,1.28
-0.13,-0.04,1.0,3.57,-2.44,0.66
-0.15,-0.03,1.0,3.09,-2.46,0.02
-0.16,-0.02,1.0,2.12,-2.58,-0.61
-0.16,-0.02,1.0,2.12,-2.58,-0.61
-0.17,-0.03,1.0,0.78,-2.77,-1.11
-0.17,-0.04,0.99,-0.72,-3.0,-1.4
-0.19,-0.04,0.98,-2.19,-3.23,-1.4
-0.19,-0.05,0.95,-3.46,-3.59,-1.21
-0.18,-0.04,0.93,-4.37,-4.1,-1.01
-0.18,-0.04,0.93,-4.37,-4.1,-1.01
-0.15,-0.04,0.92,-4.83,-4.79,-0.87
-0.12,-0.04,0.92,-4.74,-5.49,-0.86
-0.09,-0.04,0.91,-4.11,-5.98,-0.95
-0.08,-0.04,0.91,-3.02,-6.15,-1.1
-0.08,-0.04,0.91,-1.53,-5.96,-1.3
-0.08,-0.04,0.91,-1.53,-5.96,-1.3
-0.09,-0.03,0.92,0.28,-5.42,-1.57
-0.1,-0.02,0.92,2.23,-4.66,-1.93
-0.13,0.0,0.94,4.09,-3.83,-2.27
-0.15,0.02,0.95,5.57,-3.11,-2.58
-0.17,0.03,0.96,6.41,-2.6,-2.87
-0.17,0.03,0.96,6.41,-2.6,-2.87
-0.18,0.04,0.96,6.47,-2.36,-3.23
-0.17,0.04,0.95,5.81,-2.52,-3.68
-0.14,0.05,0.95,4.59,-3.1,-4.19
-0.09,0.04,0.96,3.0,-3.9,-4.74
-0.05,0.04,0.97,1.22,-4.68,-5.19
-0.05,0.04,0.97,1.22,-4.68,-5.19
-0.02,0.05,0.96,-0.61,-5.17,-5.53
-0.0,0.05,0.94,-2.25,-5.42,-5.73
0.01,0.04,0.94,-3.51,-5.5,-5.83
0.02,0.03,0.95,-4.38,-5.36,-5.77
0.02,0.02,0.96,-4.84,-4.87,-5.44
0.02,0.02,0.96,-4.84,-4.87,-5.44
-0.01,0.02,0.97,-5.1,-4.09,-4.85
-0.04,0.0,0.98,-5.1,-3.07,-4.64
-0.05,-0.02,0.98,-4.51,-1.68,-5.07
-0.07,-0.04,0.99,-3.19,0.1,-5.74
-0.09,-0.04,0.99,-1.31,2.08,-6.31
-0.09,-0.04,0.99,-1.31,2.08,-6.31
-0.11,-0.03,1.0,1.03,4.02,-6.89
-0.12,-0.01,0.99,3.61,5.69,-7.45
-0.12,0.03,0.99,6.16,6.88,-7.97
-0.11,0.07,0.99,8.43,7.5,-8.53
-0.11,0.07,0.99,10.23,7.78,-9.15
-0.08,0.1,1.0,10.23,7.78,-9.15
-0.06,0.11,1.0,11.54,7.89,-9.57
-0.04,0.12,1.01,12.33,7.88,-9.63
-0.04,0.13,1.01,12.65,7.98,-9.31
-0.04,0.13,1.02,12.52,8.39,-8.68
-0.04,0.13,1.02,11.89,9.16,-7.81
-0.05,0.13,1.02,11.89,9.16,-7.81
-0.08,0.11,1.0,10.65,10.16,-6.81
-0.1,0.09,1.0,9.07,11.12,-5.69
-0.12,0.08,0.98,7.48,12.02,-4.52
-0.14,0.07,0.97,6.18,12.8,-3.57
-0.14,0.07,0.97,6.18,12.8,-3.57
-0.14,0.05,0.98,5.28,13.37,-2.97
-0.16,0.03,0.98,4.83,13.72,-2.68
-0.18,0.01,0.97,4.88,13.73,-2.7
-0.18,0.01,0.97,5.46,13.39,-2.95
-0.17,0.02,0.97,6.39,12.8,-3.38
-0.17,0.02,0.97,6.39,12.8,-3.38
-0.14,0.04,0.99,7.37,12.16,-3.92
-0.11,0.05,1.0,8.04,11.7,-4.46
-0.08,0.06,0.99,8.05,11.66,-4.87
-0.06,0.06,0.99,7.48,12.18,-5.06
-0.05,0.05,0.98,6.6,13.34,-5.06
-0.05,0.05,0.98,6.6,13.34,-5.06
-0.04,0.05,0.98,5.61,15.04,-4.88
-0.04,0.04,0.98,4.66,17.02,-4.58
-0.05,0.04,0.98,3.8,19.13,-4.25
-0.06,0.04,0.98,3.05,21.01,-3.84
-0.08,0.04,0.99,2.4,22.58,-3.28
-0.08,0.04,0.99,2.4,22.58,-3.28
-0.09,0.04,1.0,1.79,23.84,-2.58
-0.09,0.03,1.01,1.13,24.83,-1.86
-0.09,0.03,1.01,0.45,25.64,-1.0
-0.11,0.02,1.02,-0.16,26.42,0.08
-0.12,0.01,1.02,-0.61,27.31,1.34
-0.12,0.01,1.02,-0.61,27.31,1.34
-0.13,0.01,1.02,-0.84,28.38,2.6
-0.14,0.01,1.01,-0.75,29.73,3.78
-0.15,0.01,1.01,-0.33,31.37,4.69
-0.15,0.0,1.01,0.52,33.32,5.21
-0.14,0.01,1.0,1.88,35.44,5.39
-0.14,0.01,1.0,1.88,35.44,5.39
-0.14,0.01,1.01,3.73,37.66,5.39
-0.13,0.02,1.02,5.79,39.88,5.46
-0.15,0.03,1.03,7.81,41.99,5.74
-0.17,0.05,1.04,9.58,43.79,6.21
-0.21,0.07,1.05,10.98,45.04,6.75
-0.21,0.07,1.05,10.98,45.04,6.75
-0.24,0.08,1.06,11.84,45.66,7.11
-0.26,0.09,1.06,12.01,45.67,6.88
-0.25,0.1,1.07,11.34,45.29,5.85
-0.22,0.09,1.07,9.93,44.78,4.28
-0.2,0.08,1.06,7.98,44.27,2.59
-0.2,0.08,1.06,7.98,44.27,2.59
-0.17,0.07,1.05,5.75,43.86,1.07
-0.16,0.07,1.05,3.46,43.81,-0.14
-0.16,0.06,1.04,1.3,44.08,-1.01
-0.17,0.05,1.04,-0.73,44.59,-1.54
-0.17,0.05,1.02,-2.61,45.21,-1.7
-0.17,0.05,1.02,-2.61,45.21,-1.7
-0.18,0.03,1.0,-4.23,45.74,-1.53
-0.18,0.02,1.0,-5.4,46.17,-1.0
-0.17,0.01,0.99,-6.02,46.65,-0.07
-0.17,0.0,0.97,-6.05,47.19,1.29
-0.17,-0.0,0.96,-5.62,47.82,3.06
-0.17,-0.0,0.96,-5.62,47.82,3.06
-0.18,0.0,0.95,-4.76,48.58,5.19
-0.2,0.0,0.95,-3.5,49.72,7.45
-0.23,0.0,0.95,-1.87,51.31,9.55
-0.28,-0.0,0.93,0.05,53.2,10.99
-0.31,-0.0,0.92,2.29,55.18,11.39
-0.31,-0.0,0.92,2.29,55.18,11.39
-0.31,0.01,0.91,4.92,57.17,10.8
-0.29,0.02,0.93,7.85,59.16,9.59
-0.28,0.04,0.95,10.83,61.26,8.15
-0.29,0.07,0.96,13.59,63.27,6.72
-0.3,0.09,0.96,15.85,65.01,5.49
-0.3,0.09,0.96,15.85,65.01,5.49
-0.33,0.12,0.97,17.44,66.34,4.52
-0.35,0.14,0.98,18.28,67.15,3.78
-0.37,0.16,0.99,18.28,67.41,3.18
-0.38,0.17,0.99,17.48,67.21,2.57
-0.39,0.18,0.99,15.99,66.53,2.0
-0.39,0.18,0.99,15.99,66.53,2.0
-0.38,0.18,1.0,14.01,65.39,1.67
-0.38,0.19,1.0,11.46,63.75,1.79
-0.38,0.18,1.0,8.25,61.71,2.34
-0.38,0.17,1.0,4.52,59.5,3.12
-0.39,0.15,0.98,0.59,57.21,4.05
-0.39,0.15,0.98,0.59,57.21,4.05
-0.4,0.12,0.97,-3.21,54.86,4.95
-0.41,0.09,0.95,-6.53,52.48,5.72
-0.41,0.07,0.93,-9.08,50.23,6.17
-0.39,0.05,0.92,-10.65,48.27,6.2
-0.39,0.03,0.92,-11.18,46.66,5.87
-0.39,0.03,0.92,-11.18,46.66,5.87
-0.39,0.02,0.9,-10.69,45.63,5.52
-0.39,0.03,0.9,-9.3,44.95,5.33
-0.38,0.04,0.91,-7.3,44.66,5.29
-0.38,0.05,0.91,-5.02,44.82,5.43
-0.39,0.07,0.9,-2.77,45.27,5.82
-0.39,0.07,0.9,-2.77,45.27,5.82
-0.39,0.08,0.89,-0.67,45.82,6.45
-0.38,0.09,0.89,1.22,46.44,7.34
-0.37,0.1,0.89,2.88,47.18,8.43
-0.36,0.1,0.88,4.28,47.97,9.74
-0.34,0.1,0.88,5.37,48.91,11.34
-0.34,0.1,0.88,5.37,48.91,11.34
-0.34,0.11,0.88,6.21,49.88,13.27
-0.33,0.11,0.88,6.87,50.98,15.53
-0.34,0.12,0.88,7.43,52.1,18.0
-0.38,0.12,0.88,7.85,53.17,20.49
-0.43,0.12,0.88,8.04,54.05,22.66
-0.43,0.12,0.88,8.04,54.05,22.66
-0.47,0.11,0.87,8.14,54.63,24.16
-0.49,0.1,0.86,8.33,54.74,24.96
-0.5,0.09,0.88,8.67,54.41,25.21
-0.51,0.09,0.9,9.13,53.81,24.92
-0.51,0.09,0.89,9.59,53.17,24.1
-0.51,0.09,0.89,9.59,53.17,24.1
-0.51,0.09,0.9,9.91,52.41,23.04
-0.5,0.1,0.91,10.05,51.44,21.98
-0.51,0.1,0.92,9.86,50.35,21.04
-0.53,0.11,0.93,9.31,49.15,20.21
-0.55,0.12,0.93,8.41,47.75,19.42
-0.55,0.12,0.93,8.41,47.75,19.42
-0.56,0.12,0.94,7.05,46.01,18.54
-0.57,0.12,0.94,5.16,43.94,17.63
-0.57,0.11,0.94,2.83,41.73,16.77
-0.59,0.11,0.93,0.34,39.44,15.99
-0.6,0.1,0.93,-2.19,36.97,15.23
-0.6,0.1,0.93,-2.19,36.97,15.23
-0.6,0.11,0.92,-4.78,34.24,14.34
-0.61,0.11,0.91,-7.47,31.43,13.24
-0.61,0.1,0.89,-10.2,28.65,11.98
-0.6,0.08,0.88,-12.76,25.89,10.71
-0.59,0.06,0.88,-14.99,23.28,9.49
-0.59,0.06,0.88,-14.99,23.28,9.49
-0.58,0.05,0.88,-16.81,20.94,8.32
-0.58,0.04,0.88,-18.22,19.0,7.15
-0.57,0.03,0.87,-19.15,17.53,5.94
-0.57,0.01,0.87,-19.59,16.53,4.72
-0.55,-0.0,0.87,-19.55,15.92,3.7
-0.55,-0.0,0.87,-19.55,15.92,3.7
-0.55,-0.01,0.87,-19.0,15.73,2.98
-0.55,-0.01,0.86,-17.95,15.91,2.59
-0.56,-0.01,0.85,-16.46,16.31,2.37
-0.57,0.0,0.85,-14.64,16.83,2.18
-0.58,0.01,0.84,-12.58,17.43,1.96
-0.58,0.01,0.84,-12.58,17.43,1.96
-0.58,0.03,0.84,-10.4,17.91,1.77
-0.59,0.04,0.84,-8.25,18.23,1.65
-0.59,0.06,0.85,-6.28,18.33,1.65
-0.6,0.07,0.85,-4.64,18.2,1.77
-0.59,0.07,0.85,-3.38,17.84,2.02
-0.59,0.07,0.85,-3.38,17.84,2.02
-0.57,0.07,0.87,-2.61,17.23,2.32
-0.55,0.06,0.87,-2.36,16.72,2.57
-0.55,0.06,0.85,-2.5,16.86,2.76
-0.54,0.05,0.84,-2.64,17.57,3.07
-0.53,0.04,0.84,-2.72,18.7,3.46
-0.53,0.04,0.84,-2.72,18.7,3.46
-0.52,0.04,0.84,-2.79,20.31,3.87
-0.52,0.04,0.82,-2.85,22.42,4.29
-0.51,0.04,0.8,-2.83,24.95,4.72
-0.52,0.04,0.8,-2.72,27.87,5.1
-0.52,0.04,0.79,-2.47,31.09,5.45
-0.52,0.04,0.79,-2.47,31.09,5.45
-0.52,0.05,0.78,-2.03,34.63,5.69
-0.52,0.05,0.79,-1.57,38.36,5.74
-0.52,0.05,0.79,-1.11,42.3,5.64
-0.52,0.04,0.77,-0.71,46.61,5.57
-0.53,0.04,0.77,-0.16,50.93,5.78
-0.53,0.04,0.77,-0.16,50.93,5.78
-0.55,0.05,0.79,0.83,54.63,6.49
-0.6,0.06,0.8,2.2,57.37,7.72
-0.66,0.08,0.8,3.64,58.79,9.27
-0.69,0.08,0.8,4.86,58.4,10.93
-0.69,0.07,0.8,5.79,56.21,12.58
-0.69,0.07,0.8,5.79,56.21,12.58
-0.68,0.06,0.79,6.79,52.5,14.23
-0.69,0.06,0.78,8.25,47.96,15.88
-0.71,0.06,0.78,10.51,42.89,17.39
-0.73,0.08,0.79,13.41,37.37,18.53
-0.74,0.11,0.81,16.5,31.51,19.25
-0.74,0.11,0.81,16.5,31.51,19.25
-0.73,0.14,0.83,19.34,25.46,19.59
-0.72,0.16,0.86,21.56,19.34,19.71
-0.72,0.18,0.86,22.8,13.25,19.66
-0.7,0.2,0.86,22.78,7.56,19.33
-0.65,0.18,0.85,21.42,2.6,18.54
-0.65,0.18,0.85,21.42,2.6,18.54
-0.59,0.13,0.83,18.95,-1.11,17.63
-0.55,0.08,0.78,16.16,-3.17,17.26
-0.53,0.04,0.75,14.09,-3.59,17.63
-0.52,0.01,0.71,13.57,-2.27,18.7
-0.53,-0.01,0.68,14.89,0.41,20.46
-0.53,-0.01,0.68,14.89,0.41,20.46
-0.51,-0.03,0.66,18.14,3.82,22.93
-0.49,-0.04,0.67,23.11,7.6,26.33
-0.48,-0.04,0.66,29.58,11.67,30.9
-0.5,-0.03,0.65,37.65,15.73,36.75
-0.58,0.01,0.64,47.36,19.36,43.7
-0.58,0.01,0.64,47.36,19.36,43.7
-0.68,0.07,0.64,58.45,21.99,50.95
-0.74,0.14,0.66,70.37,23.07,57.69
-0.78,0.22,0.68,82.29,22.52,63.49
-0.81,0.3,0.71,93.6,20.26,68.28
-0.83,0.38,0.75,103.72,16.72,71.92
-0.83,0.38,0.75,103.72,16.72,71.92
-0.84,0.45,0.78,112.09,12.25,74.27
-0.85,0.51,0.81,118.24,7.1,75.36
-0.85,0.55,0.85,121.72,1.49,75.33
-0.83,0.58,0.88,122.27,-4.42,74.53
-0.8,0.58,0.9,119.55,-10.47,73.07
-0.8,0.58,0.9,119.55,-10.47,73.07
-0.78,0.58,0.92,113.47,-16.62,71.1
-0.75,0.56,0.9,104.47,-22.64,68.66
-0.73,0.52,0.87,93.46,-28.3,65.69
-0.71,0.47,0.84,81.59,-33.5,62.37
-0.68,0.42,0.81,69.74,-38.25,58.86
-0.68,0.42,0.81,69.74,-38.25,58.86
-0.65,0.38,0.79,58.6,-42.64,55.31
-0.63,0.36,0.77,48.61,-46.71,51.89
-0.59,0.33,0.76,40.1,-50.51,48.81
-0.56,0.31,0.77,33.24,-54.16,46.5
-0.55,0.28,0.77,27.83,-57.54,45.3
-0.55,0.28,0.77,27.83,-57.54,45.3
-0.55,0.27,0.77,23.83,-60.67,45.23
-0.56,0.25,0.76,21.27,-63.77,45.95
-0.56,0.24,0.74,20.11,-66.99,47.08
-0.55,0.24,0.72,20.38,-70.3,48.17
-0.54,0.25,0.71,22.25,-73.34,48.97
-0.54,0.25,0.71,22.25,-73.34,48.97
-0.51,0.26,0.7,25.8,-75.79,49.31
-0.48,0.29,0.71,30.87,-77.32,49.3
-0.45,0.33,0.73,36.95,-77.69,49.1
-0.44,0.37,0.76,43.31,-76.78,48.91
-0.45,0.42,0.79,49.46,-74.69,48.81
-0.45,0.42,0.79,49.46,-74.69,48.81
-0.46,0.47,0.82,54.84,-71.59,48.63
-0.48,0.51,0.83,58.87,-67.53,47.95
-0.5,0.54,0.84,61.43,-62.96,46.59
-0.5,0.56,0.84,62.55,-58.52,44.79
-0.5,0.56,0.84,62.33,-54.83,42.99
-0.5,0.56,0.84,62.33,-54.83,42.99
-0.5,0.57,0.84,60.7,-52.32,41.43
-0.51,0.58,0.84,57.63,-51.15,40.18
-0.52,0.59,0.83,53.33,-51.51,39.1
-0.52,0.58,0.81,48.11,-53.4,38.1
-0.52,0.56,0.8,42.39,-56.67,37.11
-0.52,0.56,0.8,42.39,-56.67,37.11
-0.52,0.54,0.81,36.55,-61.16,36.09
-0.51,0.52,0.82,30.8,-66.35,34.91
-0.49,0.5,0.83,25.34,-71.88,33.46
-0.46,0.5,0.84,20.34,-77.28,31.66
-0.43,0.49,0.85,15.92,-82.11,29.46
-0.43,0.49,0.85,15.92,-82.11,29.46
-0.4,0.48,0.85,12.08,-86.06,26.91
-0.37,0.47,0.85,8.84,-88.89,24.1
-0.34,0.47,0.85,6.18,-90.64,21.19
-0.32,0.46,0.85,4.04,-91.38,18.37
-0.31,0.46,0.85,2.16,-91.16,15.67
-0.31,0.46,0.85,2.16,-91.16,15.67
-0.31,0.46,0.85,0.32,-90.24,13.11
-0.31,0.47,0.85,-1.51,-88.94,10.73
-0.31,0.46,0.84,-3.21,-87.52,8.65
-0.3,0.45,0.84,-4.67,-86.33,7.04
-0.3,0.45,0.84,-5.98,-85.69,6.07
-0.3,0.45,0.84,-5.98,-85.69,6.07
-0.3,0.44,0.84,-7.2,-85.72,5.75
-0.32,0.44,0.85,-8.33,-86.52,5.93
-0.33,0.44,0.85,-9.38,-88.11,6.17
-0.33,0.43,0.84,-10.28,-90.48,6.19
-0.33,0.43,0.83,-10.98,-93.59,5.87
-0.33,0.43,0.83,-10.98,-93.59,5.87
-0.32,0.42,0.83,-11.42,-97.16,5.16
-0.27,0.41,0.83,-11.62,-100.88,4.08
-0.23,0.41,0.83,-11.52,-104.34,2.86
-0.2,0.41,0.85,-11.12,-107.18,1.67
-0.17,0.42,0.87,-10.4,-109.16,0.44
-0.17,0.42,0.87,-10.4,-109.16,0.44
-0.14,0.43,0.88,-9.46,-109.88,-0.84
-0.14,0.43,0.88,-8.29,-109.24,-2.01
-0.14,0.43,0.88,-7.06,-107.61,-2.94
-0.16,0.44,0.89,-6.08,-105.45,-3.71
-0.18,0.44,0.88,-5.55,-103.1,-4.55
-0.18,0.44,0.88,-5.55,-103.1,-4.55
-0.18,0.44,0.87,-5.44,-100.85,-5.63
-0.18,0.45,0.85,-5.54,-98.95,-6.79
-0.17,0.46,0.85,-5.93,-97.65,-8.02
-0.12,0.45,0.85,-6.73,-97.3,-9.21
-0.1,0.45,0.88,-7.4,-97.14,-9.57
-0.1,0.45,0.88,-7.4,-97.14,-9.57
-0.08,0.45,0.91,-7.95,-96.75,-9.31
-0.07,0.46,0.93,-8.37,-96.27,-8.67
-0.06,0.48,0.95,-8.98,-95.69,-7.83
-0.05,0.49,0.97,-9.97,-95.18,-6.97
-0.05,0.5,0.98,-11.71,-94.65,-6.23
-0.05,0.5,0.98,-11.71,-94.65,-6.23
-0.03,0.5,0.99,-14.43,-94.14,-5.77
-0.01,0.5,1.0,-18.14,-93.55,-5.64
0.02,0.49,1.0,-22.64,-92.51,-5.75
0.05,0.48,1.01,-27.61,-90.83,-5.99
0.08,0.46,1.0,-32.61,-88.32,-6.29
0.08,0.46,1.0,-32.61,-88.32,-6.29
0.09,0.43,0.99,-37.31,-84.75,-6.48
0.08,0.4,0.98,-41.55,-80.28,-6.5
0.08,0.38,0.96,-45.22,-75.5,-6.38
0.05,0.35,0.96,-48.21,-70.83,-6.09
0.03,0.34,0.94,-50.5,-66.52,-5.75
0.03,0.34,0.94,-50.5,-66.52,-5.75
0.01,0.32,0.93,-51.9,-62.69,-5.59
-0.0,0.31,0.92,-52.29,-59.4,-5.67
0.01,0.3,0.92,-51.68,-56.69,-6.02
0.03,0.3,0.93,-50.24,-54.44,-6.45
0.05,0.31,0.94,-48.11,-52.42,-6.77
0.05,0.31,0.94,-48.11,-52.42,-6.77
0.06,0.32,0.95,-45.51,-50.48,-6.87
0.07,0.33,0.95,-42.58,-48.46,-6.76
0.08,0.33,0.96,-39.52,-46.3,-6.58
0.09,0.34,0.96,-36.52,-43.94,-6.44
0.09,0.34,0.96,-33.63,-41.41,-6.32
0.09,0.34,0.96,-33.63,-41.41,-6.32
0.09,0.35,0.96,-30.9,-38.71,-6.28
0.08,0.35,0.96,-28.39,-35.9,-6.23
0.07,0.37,0.96,-26.08,-33.07,-6.1
0.06,0.39,0.96,-24.12,-30.47,-5.85
0.04,0.41,0.96,-22.76,-28.24,-5.62
0.04,0.41,0.96,-22.76,-28.24,-5.62
0.02,0.43,0.96,-22.11,-26.55,-5.48
0.02,0.44,0.96,-22.23,-25.48,-5.48
0.03,0.44,0.97,-23.16,-25.08,-5.5
0.05,0.43,0.98,-24.9,-25.24,-5.35
0.05,0.43,0.98,-27.39,-25.72,-4.92
0.07,0.43,0.99,-27.39,-25.72,-4.92
0.08,0.41,0.99,-30.37,-26.34,-4.21
0.07,0.39,0.98,-33.47,-27.0,-3.26
0.06,0.38,0.97,-36.33,-27.72,-2.14
0.06,0.36,0.95,-38.68,-28.53,-0.93
0.06,0.36,0.95,-40.53,-29.49,0.31
0.05,0.36,0.95,-40.53,-29.49,0.31
0.05,0.35,0.93,-41.99,-30.46,1.31
0.07,0.35,0.91,-43.12,-31.44,2.02
0.1,0.34,0.9,-43.93,-32.26,2.52
0.13,0.33,0.9,-44.48,-32.71,3.06
0.13,0.33,0.9,-44.48,-32.71,3.06
0.15,0.31,0.9,-44.8,-32.58,3.76
0.15,0.29,0.89,-44.84,-31.74,4.65
0.14,0.28,0.87,-44.56,-30.23,5.53
0.13,0.27,0.87,-43.89,-28.3,6.21
0.13,0.27,0.86,-42.8,-26.08,6.39
0.13,0.27,0.86,-42.8,-26.08,6.39
0.15,0.27,0.87,-41.27,-23.62,6.12
0.18,0.28,0.9,-39.51,-21.07,5.74
0.2,0.31,0.93,-37.69,-18.43,5.53
0.2,0.33,0.97,-36.0,-15.78,5.72
0.18,0.36,0.98,-34.72,-13.18,6.47
0.18,0.36,0.98,-34.72,-13.18,6.47
0.15,0.38,1.01,-34.09,-11.09,7.91
0.12,0.39,1.05,-34.36,-9.78,10.01
0.09,0.39,1.09,-35.87,-9.36,12.64
0.07,0.39,1.12,-38.91,-9.93,15.42
0.06,0.37,1.14,-43.49,-11.57,17.91
0.06,0.37,1.14,-43.49,-11.57,17.91
0.04,0.33,1.15,-49.42,-14.23,20.04
0.04,0.3,1.15,-56.23,-17.68,21.59
0.07,0.24,1.14,-63.36,-21.65,22.55
0.1,0.19,1.13,-70.41,-25.91,23.25
0.13,0.15,1.12,-77.01,-30.06,23.87
0.13,0.15,1.12,-77.01,-30.06,23.87
0.15,0.11,1.1,-82.86,-33.83,24.48
0.16,0.07,1.09,-87.65,-36.93,24.91
0.16,0.04,1.06,-91.16,-39.3,24.99
0.15,0.01,1.04,-93.43,-40.96,24.55
0.15,-0.01,1.02,-94.64,-42.25,23.63
0.15,-0.01,1.02,-94.64,-42.25,23.63
0.14,-0.01,1.01,-95.07,-43.43,22.45
0.14,0.01,0.99,-94.92,-44.64,21.07
0.14,0.04,0.98,-94.54,-45.96,19.4
0.16,0.06,0.98,-94.39,-47.42,17.51
0.18,0.07,0.97,-94.8,-48.92,15.63
0.18,0.07,0.97,-94.8,-48.92,15.63
0.2,0.08,0.96,-95.97,-50.44,13.8
0.21,0.08,0.94,-97.75,-51.77,11.96
0.21,0.08,0.92,-99.88,-52.66,10.1
0.21,0.08,0.92,-102.08,-53.18,8.19
0.21,0.09,0.92,-104.36,-53.33,6.11
0.21,0.09,0.92,-104.36,-53.33,6.11
0.24,0.08,0.91,-106.88,-52.96,3.73
0.29,0.05,0.91,-109.61,-52.18,1.4
0.33,0.01,0.9,-112.29,-50.8,-0.4
0.33,-0.01,0.89,-114.45,-48.68,-1.45
0.34,-0.05,0.88,-115.79,-45.71,-1.85
0.34,-0.05,0.88,-115.79,-45.71,-1.85
0.32,-0.08,0.86,-116.18,-42.33,-1.67
0.29,-0.1,0.85,-115.64,-38.89,-0.82
0.26,-0.12,0.85,-114.15,-35.4,0.18
0.26,-0.13,0.86,-111.76,-31.84,0.81
0.26,-0.15,0.85,-108.46,-28.24,1.02
0.26,-0.15,0.85,-108.46,-28.24,1.02
0.26,-0.15,0.85,-104.34,-24.63,1.05
0.26,-0.15,0.86,-99.35,-20.97,1.02
0.26,-0.15,0.88,-93.73,-17.28,0.92
0.27,-0.14,0.9,-87.83,-13.54,0.75
0.27,-0.13,0.91,-82.0,-9.73,0.57
0.27,-0.13,0.91,-82.0,-9.73,0.57
0.29,-0.13,0.92,-76.48,-5.71,0.35
0.31,-0.12,0.94,-71.4,-1.61,0.29
0.3,-0.12,0.94,-66.76,2.61,0.6
0.27,-0.12,0.94,-62.65,6.65,1.24
0.25,-0.11,0.95,-59.14,10.42,2.06
0.25,-0.11,0.95,-59.14,10.42,2.06
0.23,-0.1,0.95,-56.35,13.88,2.92
0.22,-0.09,0.96,-54.38,16.97,3.71
0.23,-0.09,0.96,-53.24,19.75,4.3
0.23,-0.11,0.96,-52.81,22.18,4.73
0.22,-0.13,0.95,-52.86,24.26,5.24
0.22,-0.13,0.95,-52.86,24.26,5.24
0.2,-0.14,0.94,-53.1,25.99,5.85
0.16,-0.15,0.95,-53.39,27.12,6.46
0.14,-0.18,0.96,-53.77,27.33,7.01
0.13,-0.19,0.96,-54.36,26.49,7.57
0.13,-0.21,0.96,-55.11,24.83,8.04
0.13,-0.21,0.96,-55.11,24.83,8.04
0.14,-0.22,0.96,-55.79,22.56,8.26
0.17,-0.24,0.97,-56.17,20.16,8.1
0.2,-0.25,0.95,-56.04,18.01,7.71
0.2,-0.26,0.93,-55.29,16.22,7.43
0.19,-0.25,0.92,-53.89,14.8,7.27
0.19,-0.25,0.92,-53.89,14.8,7.27
0.2,-0.25,0.92,-51.89,13.69,7.18
0.2,-0.23,0.92,-49.56,12.8,7.27
0.2,-0.22,0.92,-47.24,12.22,7.46
0.21,-0.23,0.92,-45.21,11.92,7.64
0.22,-0.24,0.92,-43.53,11.91,7.77
0.22,-0.24,0.92,-43.53,11.91,7.77
0.22,-0.24,0.92,-42.07,12.26,7.87
