ax,ay,az,gx,gy,gz
0.57,-0.26,0.78,1.4,-0.02,-4.33
0.57,-0.26,0.78,1.4,-0.02,-4.33
0.55,-0.26,0.78,1.79,1.15,-4.34
0.54,-0.26,0.79,2.19,1.97,-4.28
0.54,-0.26,0.79,2.6,2.26,-4.05
0.54,-0.26,0.8,3.02,2.09,-3.65
0.54,-0.26,0.82,3.41,1.54,-3.12
0.54,-0.26,0.82,3.41,1.54,-3.12
0.55,-0.25,0.83,3.63,0.74,-2.54
0.55,-0.25,0.83,3.56,-0.24,-1.99
0.56,-0.26,0.83,3.22,-1.31,-1.49
0.57,-0.27,0.83,2.7,-2.39,-1.09
0.58,-0.27,0.82,2.03,-3.41,-0.83
0.58,-0.27,0.82,2.03,-3.41,-0.83
0.59,-0.28,0.82,1.32,-4.19,-0.75
0.6,-0.29,0.82,0.63,-4.59,-0.89
0.61,-0.31,0.82,0.06,-4.55,-1.25
0.6,-0.31,0.82,-0.24,-4.21,-1.71
0.59,-0.32,0.82,-0.17,-3.74,-2.12
0.59,-0.32,0.82,-0.17,-3.74,-2.12
0.57,-0.31,0.83,0.2,-3.3,-2.44
0.56,-0.3,0.85,0.73,-3.13,-2.71
0.56,-0.3,0.86,1.21,-3.34,-3.04
0.56,-0.3,0.86,1.59,-3.83,-3.42
0.56,-0.3,0.87,1.92,-4.5,-3.83
0.56,-0.3,0.87,1.92,-4.5,-3.83
0.57,-0.3,0.87,2.23,-5.31,-4.23
0.57,-0.29,0.86,2.62,-6.17,-4.66
0.56,-0.28,0.86,3.02,-7.02,-5.07
0.55,-0.27,0.85,3.34,-7.9,-5.37
0.55,-0.26,0.84,3.45,-8.95,-5.6
0.55,-0.26,0.84,3.45,-8.95,-5.6
0.55,-0.26,0.83,3.34,-10.23,-5.68
0.56,-0.25,0.82,3.0,-11.63,-5.53
0.57,-0.25,0.82,2.51,-13.03,-5.2
0.58,-0.23,0.81,1.93,-14.19,-4.75
0.58,-0.23,0.81,1.25,-15.07,-4.27
0.58,-0.23,0.81,1.25,-15.07,-4.27
0.59,-0.23,0.8,0.29,-15.75,-3.78
0.6,-0.24,0.79,-0.92,-16.28,-3.22
0.6,-0.24,0.79,-2.25,-16.52,-2.49
0.58,-0.24,0.78,-3.62,-16.59,-1.68
0.57,-0.25,0.77,-4.94,-16.69,-0.91
0.57,-0.25,0.77,-4.94,-16.69,-0.91
0.55,-0.25,0.76,-6.19,-16.92,-0.13
0.53,-0.25,0.75,-7.31,-17.4,0.62
0.54,-0.25,0.75,-8.18,-18.14,1.26
0.56,-0.24,0.74,-8.72,-18.98,1.74
0.58,-0.24,0.74,-9.05,-19.7,2.06
0.58,-0.24,0.74,-9.05,-19.7,2.06
0.61,-0.24,0.74,-9.24,-20.2,2.39
0.64,-0.23,0.73,-9.24,-20.3,2.91
0.65,-0.23,0.74,-9.09,-19.82,3.64
0.65,-0.22,0.74,-8.93,-18.79,4.48
0.64,-0.22,0.73,-8.95,-17.3,5.32
0.64,-0.22,0.73,-8.95,-17.3,5.32
0.63,-0.22,0.73,-9.23,-15.5,6.11
0.62,-0.22,0.73,-9.82,-13.54,6.76
0.62,-0.23,0.73,-10.71,-11.55,7.26
0.61,-0.25,0.73,-11.78,-9.59,7.6
0.6,-0.26,0.72,-12.88,-7.68,7.73
0.6,-0.26,0.72,-12.88,-7.68,7.73
0.6,-0.28,0.71,-13.87,-5.88,7.63
0.6,-0.3,0.7,-14.64,-4.19,7.38
0.6,-0.31,0.7,-15.03,-2.67,7.02
0.59,-0.32,0.69,-14.84,-1.21,6.62
0.58,-0.32,0.7,-14.03,0.13,6.21
0.58,-0.32,0.7,-14.03,0.13,6.21
0.57,-0.32,0.7,-12.69,1.27,5.78
0.57,-0.31,0.71,-10.98,2.17,5.28
0.58,-0.3,0.72,-9.04,2.87,4.68
0.6,-0.28,0.74,-7.08,3.51,4.02
0.61,-0.27,0.75,-5.27,4.28,3.35
0.61,-0.27,0.75,-5.27,4.28,3.35
0.62,-0.27,0.76,-3.75,5.24,2.64
0.62,-0.26,0.76,-2.53,6.42,1.9
0.62,-0.26,0.77,-1.56,7.76,1.2
0.61,-0.26,0.78,-0.8,9.18,0.53
0.61,-0.26,0.78,-0.25,10.65,-0.1
0.6,-0.26,0.79,-0.25,10.65,-0.1
0.58,-0.25,0.79,0.03,11.98,-0.75
0.58,-0.26,0.8,0.03,13.07,-1.46
0.58,-0.26,0.81,-0.12,13.88,-2.21
0.58,-0.27,0.81,-0.3,14.45,-2.93
0.58,-0.27,0.81,-0.35,14.85,-3.58
0.59,-0.27,0.81,-0.35,14.85,-3.58
0.59,-0.27,0.82,-0.11,15.12,-4.07
0.58,-0.27,0.82,0.33,15.22,-4.44
0.57,-0.26,0.83,0.92,15.09,-4.73
0.57,-0.25,0.83,1.49,14.72,-4.89
0.57,-0.25,0.83,1.49,14.72,-4.89
0.58,-0.24,0.83,1.93,14.17,-5.0
0.6,-0.25,0.83,2.19,13.65,-5.07
0.61,-0.25,0.83,2.29,13.31,-5.12
0.61,-0.25,0.82,2.3,13.23,-5.14
0.61,-0.25,0.82,2.3,13.5,-5.17
0.61,-0.25,0.82,2.3,13.5,-5.17
0.61,-0.26,0.81,2.32,14.06,-5.25
0.6,-0.26,0.81,2.31,14.81,-5.4
0.59,-0.27,0.8,2.28,15.67,-5.65
0.58,-0.28,0.8,2.3,16.48,-5.91
0.58,-0.28,0.8,2.45,17.13,-6.1
0.58,-0.28,0.8,2.45,17.13,-6.1
0.56,-0.29,0.8,2.85,17.55,-6.17
0.54,-0.29,0.8,3.5,17.63,-6.12
0.54,-0.29,0.81,4.35,17.32,-5.94
0.53,-0.28,0.82,5.34,16.59,-5.65
0.54,-0.27,0.83,6.34,15.58,-5.28
0.54,-0.27,0.83,6.34,15.58,-5.28
0.53,-0.26,0.83,7.24,14.36,-4.86
0.53,-0.25,0.83,7.88,12.98,-4.42
0.53,-0.24,0.83,8.22,11.49,-4.03
0.54,-0.24,0.83,8.18,9.94,-3.63
0.55,-0.24,0.82,7.87,8.47,-3.24
0.55,-0.24,0.82,7.87,8.47,-3.24
0.57,-0.25,0.8,7.43,7.23,-2.77
0.58,-0.25,0.8,6.98,6.33,-2.27
0.58,-0.25,0.8,6.57,5.83,-1.74
0.58,-0.25,0.8,6.21,5.76,-1.22
0.56,-0.26,0.8,5.88,5.99,-0.76
0.56,-0.26,0.8,5.88,5.99,-0.76
0.54,-0.26,0.8,5.6,6.36,-0.39
0.53,-0.26,0.8,5.38,6.66,-0.13
0.52,-0.26,0.8,5.21,6.71,0.06
0.53,-0.26,0.8,5.04,6.53,0.2
0.54,-0.26,0.8,4.88,6.18,0.36
0.54,-0.26,0.8,4.88,6.18,0.36
0.55,-0.27,0.8,4.75,5.77,0.54
0.55,-0.27,0.8,4.7,5.34,0.85
0.55,-0.27,0.81,4.76,4.9,1.32
0.54,-0.26,0.81,4.86,4.45,1.91
0.53,-0.25,0.83,4.83,3.89,2.53
0.53,-0.25,0.83,4.83,3.89,2.53
0.54,-0.24,0.84,4.46,3.23,3.03
0.55,-0.25,0.84,3.65,2.49,3.42
0.56,-0.25,0.84,2.43,1.81,3.75
0.57,-0.27,0.84,0.96,1.29,4.07
0.57,-0.28,0.82,-0.54,0.95,4.32
0.57,-0.28,0.82,-0.54,0.95,4.32
0.57,-0.29,0.81,-1.91,0.78,4.48
0.57,-0.31,0.81,-2.99,0.77,4.45
0.57,-0.32,0.81,-3.7,0.96,4.14
0.57,-0.33,0.8,-3.99,1.4,3.57
0.57,-0.33,0.8,-3.84,2.07,2.83
0.57,-0.33,0.8,-3.84,2.07,2.83
0.56,-0.33,0.8,-3.26,2.84,2.0
0.56,-0.32,0.81,-2.36,3.58,1.13
0.55,-0.31,0.82,-1.35,4.2,0.35
0.55,-0.29,0.83,-0.36,4.59,-0.32
0.54,-0.28,0.84,0.48,4.74,-0.83
0.54,-0.28,0.84,0.48,4.74,-0.83
0.54,-0.27,0.85,1.12,4.71,-1.19
0.53,-0.26,0.84,1.44,4.44,-1.41
0.53,-0.26,0.84,1.47,3.88,-1.54
0.53,-0.26,0.83,1.33,3.06,-1.57
0.52,-0.26,0.83,1.14,2.0,-1.57
0.52,-0.26,0.83,1.14,2.0,-1.57
0.53,-0.27,0.83,1.03,0.81,-1.64
0.55,-0.27,0.82,1.0,-0.34,-1.71
0.56,-0.27,0.82,1.02,-1.3,-1.81
0.57,-0.26,0.81,1.16,-1.9,-1.88
0.58,-0.26,0.81,1.35,-2.16,-1.92
0.58,-0.26,0.81,1.35,-2.16,-1.92
0.58,-0.25,0.81,1.48,-2.05,-1.89
0.58,-0.25,0.81,1.38,-1.55,-1.83
0.57,-0.25,0.8,1.03,-0.79,-1.8
0.57,-0.26,0.8,0.57,0.14,-1.8
0.56,-0.27,0.8,0.16,1.14,-1.81
0.56,-0.27,0.8,0.16,1.14,-1.81
0.54,-0.28,0.8,-0.1,2.06,-1.73
0.52,-0.28,0.79,-0.04,2.72,-1.55
0.52,-0.28,0.8,0.29,3.01,-1.34
0.52,-0.28,0.8,0.77,2.92,-1.18
0.54,-0.27,0.81,1.29,2.6,-1.06
0.54,-0.27,0.81,1.29,2.6,-1.06
0.56,-0.27,0.81,1.74,2.27,-0.95
0.57,-0.26,0.81,2.08,2.06,-0.74
0.58,-0.26,0.82,2.22,2.08,-0.38
0.57,-0.25,0.82,2.08,2.26,0.12
0.55,-0.25,0.82,1.55,2.53,0.64
0.55,-0.25,0.82,1.55,2.53,0.64
0.55,-0.25,0.81,0.64,2.82,1.03
0.56,-0.26,0.8,-0.57,3.16,1.26
0.57,-0.28,0.79,-1.9,3.64,1.42
0.57,-0.29,0.78,-3.12,4.38,1.51
0.58,-0.3,0.77,-3.93,5.42,1.55
0.58,-0.3,0.77,-3.93,5.42,1.55
0.57,-0.3,0.77,-4.29,6.7,1.55
0.57,-0.3,0.78,-4.31,8.2,1.43
0.56,-0.29,0.79,-4.09,9.84,1.18
0.54,-0.29,0.8,-3.73,11.45,0.88
0.51,-0.29,0.81,-3.27,12.73,0.7
0.51,-0.29,0.81,-3.27,12.73,0.7
0.49,-0.28,0.82,-2.74,13.42,0.71
0.48,-0.27,0.83,-2.23,13.48,0.78
0.49,-0.27,0.84,-1.91,13.04,0.81
0.51,-0.27,0.84,-1.8,12.28,0.71
0.53,-0.27,0.84,-1.83,11.47,0.5
0.53,-0.27,0.84,-1.83,11.47,0.5
0.54,-0.28,0.84,-1.8,10.82,0.23
0.54,-0.28,0.85,-1.62,10.45,-0.02
0.54,-0.28,0.85,-1.34,10.34,-0.26
0.53,-0.28,0.84,-1.03,10.42,-0.57
0.53,-0.28,0.84,-0.76,10.66,-1.02
0.53,-0.28,0.84,-0.76,10.66,-1.02
0.54,-0.28,0.84,-0.48,11.01,-1.6
0.54,-0.28,0.85,-0.12,11.53,-2.26
0.53,-0.28,0.85,0.47,12.14,-2.82
0.51,-0.27,0.86,1.22,12.76,-3.13
0.49,-0.25,0.87,2.05,13.24,-3.34
0.49,-0.25,0.87,2.05,13.24,-3.34
0.47,-0.24,0.87,2.68,13.43,-3.61
0.47,-0.23,0.88,2.98,13.24,-4.08
0.47,-0.23,0.87,2.95,12.73,-4.66
0.49,-0.24,0.87,2.74,12.01,-5.31
0.51,-0.25,0.85,2.59,11.23,-5.88
0.51,-0.25,0.85,2.59,11.23,-5.88
0.52,-0.25,0.85,2.65,10.55,-6.21
0.52,-0.25,0.84,2.96,10.07,-6.28
0.52,-0.24,0.83,3.49,9.83,-6.17
0.52,-0.24,0.83,4.16,9.79,-5.94
0.51,-0.24,0.83,4.91,9.86,-5.58
0.51,-0.24,0.83,4.91,9.86,-5.58
0.51,-0.23,0.83,5.64,9.97,-5.08
0.5,-0.23,0.84,6.34,10.02,-4.45
0.48,-0.23,0.84,6.98,9.93,-3.7
0.47,-0.23,0.83,7.51,9.62,-2.89
0.46,-0.22,0.83,7.88,8.98,-2.1
0.46,-0.22,0.83,7.88,8.98,-2.1
0.47,-0.22,0.83,7.98,8.06,-1.47
0.48,-0.23,0.83,7.83,7.02,-1.02
0.48,-0.24,0.83,7.55,5.99,-0.67
0.48,-0.24,0.83,7.29,5.05,-0.22
0.47,-0.23,0.83,7.11,4.03,0.31
0.47,-0.23,0.83,7.11,4.03,0.31
0.47,-0.23,0.83,6.86,2.85,0.83
0.49,-0.22,0.83,6.37,1.65,1.26
0.5,-0.23,0.83,5.59,0.67,1.57
0.52,-0.25,0.81,4.7,0.05,1.81
0.52,-0.26,0.8,3.93,-0.13,2.0
0.52,-0.26,0.8,3.93,-0.13,2.0
0.52,-0.26,0.8,3.49,0.04,2.18
0.51,-0.27,0.8,3.4,0.49,2.39
0.49,-0.27,0.8,3.6,1.08,2.64
0.47,-0.26,0.8,3.96,1.52,2.95
0.46,-0.26,0.8,4.44,1.68,3.14
0.46,-0.26,0.8,4.44,1.68,3.14
0.47,-0.26,0.8,4.95,1.61,3.13
0.49,-0.26,0.8,5.48,1.5,2.89
0.51,-0.26,0.8,5.99,1.54,2.5
0.53,-0.27,0.8,6.56,1.94,2.06
0.53,-0.28,0.8,7.24,2.81,1.65
0.53,-0.28,0.8,7.24,2.81,1.65
0.53,-0.28,0.81,8.04,4.04,1.24
0.52,-0.28,0.82,8.98,5.64,0.75
0.52,-0.27,0.84,9.93,7.57,0.11
0.5,-0.25,0.86,10.8,9.63,-0.61
0.47,-0.24,0.87,11.44,11.44,-1.24
0.47,-0.24,0.87,11.44,11.44,-1.24
0.43,-0.23,0.87,11.71,12.62,-1.75
0.42,-0.23,0.88,11.52,12.87,-2.16
0.44,-0.22,0.89,10.84,12.26,-2.49
0.48,-0.23,0.89,9.77,11.18,-2.69
0.52,-0.24,0.89,8.48,10.14,-2.76
0.52,-0.24,0.89,8.48,10.14,-2.76
0.54,-0.25,0.88,7.2,9.5,-2.67
0.55,-0.26,0.87,6.06,9.34,-2.4
0.56,-0.27,0.86,5.14,9.7,-1.98
0.56,-0.28,0.87,4.46,10.58,-1.57
0.56,-0.28,0.87,3.89,12.02,-1.3
0.56,-0.28,0.87,3.89,12.02,-1.3
0.55,-0.29,0.87,3.39,13.95,-1.24
0.55,-0.29,0.87,2.93,16.22,-1.3
0.55,-0.29,0.87,2.5,18.74,-1.47
0.54,-0.3,0.87,2.05,21.49,-1.75
0.54,-0.3,0.87,1.51,24.5,-2.22
0.54,-0.3,0.87,1.51,24.5,-2.22
0.52,-0.3,0.87,0.83,27.68,-2.97
0.52,-0.3,0.87,-0.0,30.98,-4.08
0.53,-0.31,0.86,-0.96,34.36,-5.49
0.55,-0.32,0.85,-1.93,37.95,-7.12
0.56,-0.34,0.85,-2.93,41.92,-8.9
0.56,-0.34,0.85,-2.93,41.92,-8.9
0.57,-0.34,0.85,-3.78,46.34,-10.63
0.58,-0.35,0.84,-4.35,51.27,-12.26
0.56,-0.35,0.84,-4.52,56.65,-13.77
0.54,-0.36,0.84,-4.36,62.22,-15.09
0.5,-0.36,0.84,-3.8,67.56,-16.15
0.5,-0.36,0.84,-3.8,67.56,-16.15
0.45,-0.37,0.84,-2.76,72.3,-16.95
0.41,-0.38,0.84,-1.22,76.11,-17.46
0.37,-0.38,0.83,0.89,78.77,-17.53
0.36,-0.38,0.83,3.58,80.22,-17.21
0.37,-0.37,0.85,6.83,80.79,-16.7
0.37,-0.37,0.85,6.83,80.79,-16.7
0.4,-0.35,0.86,10.47,81.11,-16.24
0.44,-0.34,0.87,14.29,81.82,-15.87
0.46,-0.33,0.87,18.09,83.27,-15.66
0.47,-0.32,0.88,21.64,85.63,-15.6
0.45,-0.31,0.88,25.0,88.86,-15.7
0.45,-0.31,0.88,25.0,88.86,-15.7
0.37,-0.3,0.89,28.06,92.61,-16.06
0.29,-0.28,0.9,30.72,96.14,-16.99
0.23,-0.26,0.9,32.85,98.89,-18.67
0.22,-0.26,0.91,34.37,100.64,-20.93
0.23,-0.25,0.92,35.39,101.48,-23.33
0.23,-0.25,0.92,35.39,101.48,-23.33
0.25,-0.24,0.93,35.99,101.68,-25.45
0.27,-0.22,0.95,36.27,101.68,-27.09
0.29,-0.21,0.95,36.3,101.8,-28.32
0.29,-0.19,0.96,36.1,102.35,-29.14
0.27,-0.17,0.95,35.72,103.23,-29.55
0.27,-0.17,0.95,35.72,103.23,-29.55
0.25,-0.16,0.95,35.14,104.15,-29.55
0.22,-0.15,0.95,34.35,104.92,-29.08
0.2,-0.15,0.94,33.36,105.36,-28.08
0.17,-0.15,0.93,32.25,105.44,-26.74
0.15,-0.14,0.94,31.11,105.21,-25.32
0.15,-0.14,0.94,31.11,105.21,-25.32
0.14,-0.14,0.93,29.98,104.79,-24.11
0.14,-0.15,0.93,29.0,104.25,-23.17
0.15,-0.16,0.92,28.32,103.76,-22.32
0.14,-0.16,0.91,27.96,103.34,-21.36
0.12,-0.17,0.92,28.01,102.86,-20.21
0.12,-0.17,0.92,28.01,102.86,-20.21
0.08,-0.16,0.91,28.51,101.96,-18.89
0.04,-0.16,0.92,29.54,100.33,-17.49
0.0,-0.16,0.93,31.04,97.79,-15.84
-0.04,-0.14,0.94,32.87,94.2,-13.99
-0.05,-0.12,0.96,34.82,89.56,-12.23
-0.05,-0.12,0.96,34.82,89.56,-12.23
-0.06,-0.09,0.98,36.72,84.13,-10.79
-0.04,-0.06,1.0,38.38,78.31,-9.68
-0.01,-0.03,1.02,39.52,72.54,-8.72
0.03,-0.01,1.04,39.86,67.23,-7.91
0.05,-0.0,1.05,39.26,62.79,-7.19
0.05,-0.0,1.05,39.26,62.79,-7.19
0.07,0.01,1.06,37.61,59.5,-6.49
0.08,0.01,1.06,34.84,57.2,-5.66
0.07,-0.0,1.04,31.04,55.65,-4.63
0.06,-0.02,1.03,26.66,54.65,-3.41
0.04,-0.05,1.01,22.15,53.9,-2.12
0.04,-0.05,1.01,22.15,53.9,-2.12
0.02,-0.08,0.99,17.89,53.17,-0.82
-0.0,-0.1,0.98,14.18,52.31,0.41
-0.02,-0.11,0.97,11.27,51.23,1.47
-0.04,-0.13,0.96,9.35,49.88,2.35
-0.05,-0.14,0.97,8.46,48.17,3.09
-0.05,-0.14,0.97,8.46,48.17,3.09
-0.06,-0.14,0.98,8.42,46.03,3.86
-0.06,-0.13,0.99,8.99,43.48,4.67
-0.07,-0.13,1.0,9.97,40.7,5.35
-0.06,-0.12,1.01,11.1,37.87,5.82
-0.05,-0.11,1.02,12.23,35.21,6.01
-0.05,-0.11,1.02,12.23,35.21,6.01
-0.04,-0.09,1.02,13.29,33.1,5.86
-0.01,-0.08,1.03,14.16,31.84,5.3
0.01,-0.08,1.02,14.64,31.49,4.54
0.03,-0.08,1.02,14.65,32.02,3.89
0.02,-0.08,1.01,14.25,33.28,3.49
0.02,-0.08,1.01,14.25,33.28,3.49
0.0,-0.1,1.0,13.48,34.99,3.31
-0.02,-0.11,0.98,12.62,36.88,3.29
-0.05,-0.13,0.96,11.97,38.65,3.35
-0.08,-0.14,0.95,11.74,39.91,3.46
-0.11,-0.14,0.94,12.04,40.43,3.61
-0.11,-0.14,0.94,12.04,40.43,3.61
-0.14,-0.13,0.94,13.0,39.99,3.81
-0.16,-0.12,0.94,14.59,38.34,4.13
-0.18,-0.09,0.95,16.55,35.35,4.67
-0.2,-0.06,0.97,18.47,31.08,5.38
-0.2,-0.03,0.98,19.87,25.66,6.02
-0.2,-0.03,0.98,19.87,25.66,6.02
-0.19,-0.01,1.0,20.58,19.48,6.34
-0.15,0.01,1.02,20.43,13.0,6.37
-0.11,0.02,1.04,19.19,6.6,6.18
-0.07,0.03,1.04,16.7,0.92,5.89
-0.04,0.03,1.03,13.04,-3.74,5.61
-0.04,0.03,1.03,13.04,-3.74,5.61
-0.02,0.02,1.02,8.44,-7.33,5.39
-0.01,-0.0,1.0,3.18,-9.81,5.11
-0.01,-0.03,0.98,-2.37,-11.22,4.77
-0.02,-0.07,0.95,-7.87,-11.9,4.4
-0.02,-0.07,0.95,-12.87,-12.26,4.04
-0.02,-0.1,0.93,-12.87,-12.26,4.04
-0.03,-0.13,0.91,-16.96,-12.45,3.61
-0.02,-0.17,0.91,-19.82,-12.6,3.02
-0.01,-0.18,0.9,-21.47,-12.77,2.37
0.0,-0.19,0.9,-21.9,-12.94,1.84
0.0,-0.19,0.9,-21.21,-13.13,1.49
0.01,-0.19,0.9,-21.21,-13.13,1.49
0.0,-0.19,0.9,-19.57,-13.35,1.39
-0.01,-0.18,0.91,-17.22,-13.71,1.51
-0.01,-0.17,0.92,-14.42,-14.34,1.81
-0.01,-0.17,0.93,-11.4,-15.27,2.14
-0.01,-0.17,0.93,-11.4,-15.27,2.14
0.01,-0.16,0.94,-8.25,-16.31,2.43
0.02,-0.15,0.95,-5.05,-17.12,2.59
0.02,-0.13,0.96,-1.91,-17.53,2.58
0.03,-0.12,0.97,0.97,-17.48,2.4
0.03,-0.1,0.98,3.32,-17.0,2.0
0.03,-0.1,0.98,3.32,-17.0,2.0
0.03,-0.08,0.99,5.05,-16.11,1.47
0.03,-0.08,0.99,6.21,-14.91,0.9
0.02,-0.07,0.99,6.76,-13.5,0.28
0.01,-0.06,0.99,6.76,-12.04,-0.35
-0.0,-0.06,0.99,6.34,-10.7,-0.99
-0.0,-0.06,0.99,6.34,-10.7,-0.99
-0.02,-0.06,0.98,5.64,-9.55,-1.62
-0.02,-0.06,0.98,4.81,-8.81,-2.15
-0.03,-0.06,0.98,3.96,-8.52,-2.47
-0.03,-0.06,0.98,3.18,-8.62,-2.68
-0.03,-0.07,0.97,2.55,-9.11,-2.84
-0.03,-0.07,0.97,2.55,-9.11,-2.84
-0.03,-0.07,0.97,2.2,-9.88,-2.96
-0.03,-0.08,0.97,2.2,-10.76,-3.06
-0.02,-0.07,0.98,2.6,-11.58,-3.2
-0.01,-0.07,0.98,3.25,-12.24,-3.43
0.0,-0.07,0.98,4.09,-12.61,-3.7
0.0,-0.07,0.98,4.09,-12.61,-3.7
0.01,-0.06,0.98,5.04,-12.58,-3.93
0.01,-0.05,0.99,5.98,-12.04,-4.16
0.02,-0.04,0.99,6.74,-10.98,-4.44
0.03,-0.04,0.98,7.22,-9.36,-4.8
0.03,-0.04,0.98,7.4,-7.25,-5.05
0.03,-0.04,0.98,7.4,-7.25,-5.05
0.03,-0.04,0.98,7.25,-4.89,-5.04
0.02,-0.06,0.98,6.8,-2.48,-4.77
0.01,-0.07,0.98,6.16,-0.2,-4.33
-0.01,-0.08,0.97,5.54,1.74,-3.82
-0.02,-0.08,0.97,5.12,3.19,-3.22
-0.02,-0.08,0.97,5.12,3.19,-3.22
-0.03,-0.09,0.97,4.89,4.05,-2.56
-0.04,-0.09,0.97,4.89,4.26,-1.83
-0.05,-0.09,0.97,5.06,3.88,-1.12
-0.03,-0.1,0.97,5.38,3.07,-0.53
-0.02,-0.1,0.98,5.83,2.06,-0.0
-0.02,-0.1,0.98,5.83,2.06,-0.0
-0.01,-0.09,0.98,6.36,1.04,0.53
0.0,-0.08,0.99,6.84,0.19,1.11
0.01,-0.07,1.0,7.08,-0.45,1.67
0.01,-0.07,1.0,6.92,-0.9,2.23
0.01,-0.08,0.99,6.33,-1.24,2.74
0.01,-0.08,0.99,6.33,-1.24,2.74
0.01,-0.09,0.99,5.41,-1.49,3.16
0.02,-0.1,0.99,4.41,-1.57,3.48
0.01,-0.11,0.98,3.41,-1.56,3.79
0.01,-0.11,0.98,2.42,-1.57,4.0
0.01,-0.12,0.97,1.51,-1.7,4.06
0.01,-0.12,0.97,1.51,-1.7,4.06
0.01,-0.13,0.97,0.81,-1.87,3.97
0.02,-0.14,0.97,0.39,-2.02,3.9
0.02,-0.13,0.98,0.26,-2.08,3.85
0.02,-0.13,0.98,0.38,-2.09,3.76
0.01,-0.13,0.98,0.7,-2.23,3.73
0.01,-0.13,0.98,0.7,-2.23,3.73
-0.01,-0.13,0.98,1.14,-2.57,3.77
-0.02,-0.12,0.98,1.73,-3.08,3.83
-0.02,-0.12,0.99,2.49,-3.77,3.81
-0.02,-0.12,0.99,3.41,-4.6,3.72
-0.02,-0.12,0.99,4.37,-5.55,3.6
-0.02,-0.12,0.99,4.37,-5.55,3.6
-0.02,-0.11,0.99,5.38,-6.53,3.42
-0.02,-0.1,0.99,6.42,-7.41,3.18
-0.02,-0.1,0.99,7.44,-8.14,2.84
-0.02,-0.09,0.99,8.39,-8.71,2.42
-0.01,-0.07,0.99,9.24,-9.14,1.99
-0.01,-0.07,0.99,9.24,-9.14,1.99
-0.0,-0.07,0.99,9.99,-9.26,1.62
-0.0,-0.06,0.98,10.55,-9.03,1.36
-0.02,-0.06,0.98,10.85,-8.51,1.21
-0.03,-0.06,0.98,10.91,-7.79,1.04
-0.03,-0.07,0.96,10.97,-7.06,0.88
-0.03,-0.07,0.96,10.97,-7.06,0.88
-0.04,-0.08,0.96,11.21,-6.39,0.78
-0.04,-0.09,0.96,11.71,-5.79,0.74
-0.05,-0.08,0.96,12.53,-5.2,0.75
-0.05,-0.08,0.96,13.63,-4.58,0.73
-0.05,-0.07,0.96,14.84,-3.81,0.71
-0.05,-0.07,0.96,14.84,-3.81,0.71
-0.05,-0.07,0.96,15.97,-2.85,0.72
-0.05,-0.07,0.96,16.87,-1.57,0.8
-0.06,-0.08,0.96,17.47,0.11,0.86
-0.06,-0.11,0.95,17.72,2.32,0.88
-0.06,-0.14,0.94,17.57,5.33,0.94
-0.06,-0.14,0.94,17.57,5.33,0.94
-0.06,-0.18,0.93,17.06,9.5,0.93
-0.05,-0.22,0.91,16.28,15.29,0.62
-0.05,-0.28,0.88,15.38,23.01,-0.02
-0.07,-0.34,0.83,14.82,32.61,-0.67
-0.09,-0.4,0.79,15.01,43.5,-0.93
-0.09,-0.4,0.79,15.01,43.5,-0.93
-0.14,-0.44,0.77,16.15,55.1,-0.65
-0.22,-0.48,0.75,18.3,66.7,0.1
-0.32,-0.5,0.75,21.34,77.4,0.99
-0.42,-0.52,0.74,25.1,86.36,1.25
-0.48,-0.52,0.75,29.56,92.78,0.37
-0.48,-0.52,0.75,29.56,92.78,0.37
-0.48,-0.48,0.78,34.34,96.38,-1.44
-0.45,-0.42,0.85,38.69,97.44,-3.87
