ax,ay,az,gx,gy,gz
0.55,-0.06,0.79,-15.82,-11.69,17.16
0.53,-0.08,0.79,-13.89,-11.07,16.43
0.51,-0.08,0.79,-11.53,-11.06,15.99
0.5,-0.07,0.79,-8.81,-11.7,15.61
0.5,-0.06,0.8,-5.91,-12.89,15.02
0.5,-0.06,0.8,-5.91,-12.89,15.02
0.52,-0.04,0.81,-3.07,-14.37,14.11
0.55,-0.02,0.83,-0.51,-15.89,12.98
0.56,0.0,0.84,1.65,-17.33,11.8
0.53,0.03,0.84,3.36,-18.94,10.99
0.51,0.06,0.84,4.36,-21.13,10.75
0.51,0.06,0.84,4.36,-21.13,10.75
0.5,0.08,0.85,4.45,-24.0,11.02
0.51,0.09,0.85,3.48,-27.27,11.62
0.54,0.09,0.84,1.42,-30.64,12.31
0.57,0.07,0.82,-1.6,-33.88,12.82
0.6,0.03,0.79,-5.16,-36.63,13.04
0.6,0.03,0.79,-5.16,-36.63,13.04
0.63,-0.0,0.76,-8.72,-38.51,13.04
0.65,-0.04,0.73,-11.77,-39.34,12.94
0.65,-0.05,0.72,-13.95,-39.27,12.82
0.63,-0.06,0.7,-15.11,-38.55,12.76
0.62,-0.07,0.69,-15.41,-37.48,12.69
0.62,-0.07,0.69,-15.41,-37.48,12.69
0.61,-0.07,0.69,-15.08,-36.2,12.61
0.6,-0.07,0.69,-14.25,-34.84,12.49
0.6,-0.07,0.68,-13.04,-33.48,12.3
0.6,-0.08,0.68,-11.51,-32.27,12.03
0.6,-0.07,0.69,-9.6,-31.17,11.77
0.6,-0.07,0.69,-9.6,-31.17,11.77
0.59,-0.06,0.69,-7.37,-30.31,11.62
0.58,-0.04,0.7,-5.18,-29.92,11.7
0.58,-0.03,0.7,-3.27,-30.29,12.13
0.56,-0.03,0.71,-1.82,-31.14,12.86
0.56,-0.02,0.71,-0.91,-32.27,13.53
0.56,-0.02,0.71,-0.91,-32.27,13.53
0.58,-0.01,0.71,-0.47,-33.68,13.99
0.62,-0.01,0.71,-0.57,-35.03,14.19
0.65,-0.02,0.71,-1.09,-35.99,14.3
0.67,-0.03,0.7,-2.01,-36.37,14.39
0.68,-0.04,0.69,-3.3,-36.19,14.39
0.68,-0.04,0.69,-3.3,-36.19,14.39
0.67,-0.06,0.68,-4.64,-35.42,14.36
0.66,-0.07,0.67,-5.74,-34.34,14.43
0.63,-0.08,0.67,-6.58,-33.33,14.77
0.62,-0.08,0.67,-7.17,-32.4,15.23
0.62,-0.08,0.66,-7.53,-31.66,15.58
0.62,-0.08,0.66,-7.53,-31.66,15.58
0.63,-0.08,0.67,-7.73,-31.14,15.77
0.64,-0.08,0.67,-7.84,-30.69,15.77
0.65,-0.09,0.66,-7.81,-30.21,15.54
0.66,-0.1,0.66,-7.61,-29.57,15.06
0.67,-0.1,0.66,-7.28,-28.66,14.39
0.67,-0.1,0.66,-7.28,-28.66,14.39
0.68,-0.09,0.66,-6.82,-27.4,13.52
0.67,-0.07,0.67,-6.41,-25.83,12.47
0.65,-0.07,0.67,-6.28,-24.25,11.25
0.64,-0.08,0.66,-6.36,-22.98,10.16
0.61,-0.08,0.66,-6.46,-22.33,9.45
0.61,-0.08,0.66,-6.46,-22.33,9.45
0.61,-0.08,0.66,-6.56,-22.34,9.07
0.62,-0.07,0.67,-6.67,-22.86,8.85
0.65,-0.07,0.67,-6.88,-23.65,8.68
0.67,-0.08,0.67,-7.19,-24.4,8.45
0.69,-0.08,0.66,-7.49,-24.72,8.08
0.69,-0.08,0.66,-7.49,-24.72,8.08
0.7,-0.08,0.65,-7.67,-24.59,7.76
0.7,-0.07,0.65,-7.86,-24.1,7.48
0.69,-0.09,0.64,-8.12,-23.45,7.27
0.69,-0.1,0.63,-8.31,-22.64,7.25
0.69,-0.1,0.63,-8.3,-21.74,7.47
0.69,-0.12,0.62,-8.3,-21.74,7.47
0.69,-0.12,0.62,-7.97,-20.77,7.88
0.69,-0.13,0.62,-7.27,-19.79,8.43
0.68,-0.12,0.62,-6.3,-18.77,9.08
0.68,-0.11,0.63,-5.23,-17.69,9.49
0.68,-0.11,0.63,-5.23,-17.69,9.49
0.68,-0.11,0.64,-4.14,-16.56,9.56
0.67,-0.11,0.64,-3.12,-15.52,9.42
0.65,-0.11,0.65,-2.26,-14.82,9.22
0.65,-0.1,0.64,-1.65,-14.57,9.01
0.66,-0.11,0.64,-1.26,-14.72,8.83
0.66,-0.11,0.64,-1.26,-14.72,8.83
0.67,-0.11,0.65,-1.08,-15.05,8.73
0.68,-0.12,0.64,-1.02,-15.35,8.58
0.69,-0.13,0.63,-0.85,-15.63,8.4
0.69,-0.13,0.63,-0.42,-15.89,8.33
0.69,-0.13,0.64,0.19,-16.16,8.37
0.69,-0.13,0.64,0.19,-16.16,8.37
0.7,-0.12,0.64,0.78,-16.31,8.35
0.71,-0.12,0.64,1.26,-16.23,8.11
0.72,-0.12,0.64,1.61,-15.82,7.65
0.71,-0.12,0.63,1.94,-15.11,7.09
0.7,-0.11,0.63,2.27,-14.29,6.61
0.7,-0.11,0.63,2.27,-14.29,6.61
0.69,-0.1,0.63,2.58,-13.54,6.19
0.69,-0.09,0.64,2.75,-12.9,5.81
0.7,-0.09,0.64,2.61,-12.27,5.44
0.71,-0.09,0.64,2.16,-11.59,5.05
0.71,-0.1,0.63,1.52,-10.77,4.6
0.71,-0.1,0.63,1.52,-10.77,4.6
0.71,-0.11,0.63,0.85,-9.75,4.1
0.69,-0.12,0.62,0.24,-8.61,3.59
0.66,-0.12,0.62,-0.21,-7.67,3.2
0.63,-0.11,0.63,-0.6,-7.25,2.9
0.61,-0.09,0.64,-1.17,-7.53,2.56
0.61,-0.09,0.64,-1.17,-7.53,2.56
0.62,-0.09,0.64,-2.11,-8.63,2.09
0.64,-0.09,0.64,-3.45,-10.38,1.48
0.67,-0.11,0.62,-4.9,-12.38,0.77
0.7,-0.13,0.61,-6.16,-14.18,0.12
0.72,-0.15,0.59,-7.04,-15.65,-0.29
0.72,-0.15,0.59,-7.04,-15.65,-0.29
0.72,-0.15,0.58,-7.29,-16.74,-0.34
0.73,-0.15,0.58,-6.85,-17.21,-0.19
0.74,-0.14,0.58,-5.86,-17.04,-0.14
0.75,-0.14,0.58,-4.52,-16.27,-0.24
0.76,-0.13,0.58,-2.95,-14.83,-0.46
0.76,-0.13,0.58,-2.95,-14.83,-0.46
0.76,-0.13,0.59,-1.24,-12.76,-0.7
0.75,-0.13,0.59,0.46,-10.37,-0.74
0.72,-0.13,0.6,2.05,-7.96,-0.57
0.69,-0.11,0.62,3.48,-5.93,-0.25
0.68,-0.09,0.64,4.61,-4.53,0.19
0.68,-0.09,0.64,4.61,-4.53,0.19
0.68,-0.07,0.66,5.22,-3.72,0.68
0.68,-0.06,0.67,5.13,-3.33,1.14
0.65,-0.06,0.68,4.3,-3.46,1.66
0.63,-0.06,0.68,2.71,-4.4,2.21
0.64,-0.07,0.67,0.54,-6.07,2.67
0.64,-0.07,0.67,0.54,-6.07,2.67
0.67,-0.09,0.66,-1.85,-8.23,3.12
0.69,-0.11,0.65,-4.1,-10.49,3.72
0.71,-0.13,0.63,-5.98,-12.63,4.4
0.72,-0.14,0.62,-7.28,-14.43,5.12
0.72,-0.15,0.61,-7.97,-15.7,5.72
0.72,-0.15,0.61,-7.97,-15.7,5.72
0.72,-0.15,0.59,-8.11,-16.38,5.98
0.72,-0.16,0.58,-7.77,-16.56,5.99
0.7,-0.15,0.58,-7.02,-16.46,5.88
0.7,-0.15,0.58,-6.04,-16.33,5.66
0.7,-0.13,0.58,-4.94,-16.2,5.37
0.7,-0.13,0.58,-4.94,-16.2,5.37
0.7,-0.12,0.58,-3.97,-16.05,5.02
0.71,-0.11,0.58,-3.29,-15.87,4.55
0.72,-0.11,0.57,-2.92,-15.62,4.09
0.73,-0.1,0.56,-2.75,-15.21,3.67
0.76,-0.1,0.55,-2.77,-14.41,3.32
0.76,-0.1,0.55,-2.77,-14.41,3.32
0.78,-0.1,0.55,-2.98,-13.02,3.12
0.8,-0.1,0.56,-3.45,-10.87,3.15
0.78,-0.11,0.56,-4.21,-7.93,3.43
0.75,-0.11,0.55,-5.27,-4.56,3.96
0.71,-0.11,0.55,-6.56,-1.31,4.7
0.71,-0.11,0.55,-6.56,-1.31,4.7
0.7,-0.12,0.54,-7.82,1.57,5.52
0.71,-0.13,0.55,-8.94,4.13,6.34
0.72,-0.14,0.56,-9.77,6.53,7.15
0.71,-0.14,0.56,-10.4,8.77,7.98
0.71,-0.14,0.55,-10.88,10.85,8.76
0.71,-0.14,0.55,-10.88,10.85,8.76
0.73,-0.14,0.56,-11.25,12.94,9.5
0.75,-0.14,0.56,-11.54,15.27,10.13
0.77,-0.14,0.57,-11.83,17.99,10.62
0.78,-0.15,0.58,-12.24,21.21,11.03
0.78,-0.14,0.58,-12.93,24.96,11.36
0.78,-0.14,0.58,-12.93,24.96,11.36
0.77,-0.14,0.59,-13.98,29.22,11.59
0.75,-0.15,0.6,-15.36,33.76,11.62
0.72,-0.16,0.6,-16.98,38.23,11.55
0.67,-0.17,0.6,-18.65,42.26,11.64
0.64,-0.18,0.61,-20.09,45.51,11.96
0.64,-0.18,0.61,-20.09,45.51,11.96
0.62,-0.19,0.61,-21.14,47.74,12.48
0.62,-0.2,0.62,-21.73,48.93,13.19
0.63,-0.2,0.63,-21.84,49.32,14.11
0.64,-0.2,0.65,-21.51,49.23,15.24
0.64,-0.19,0.66,-20.91,48.76,16.5
0.64,-0.19,0.66,-20.91,48.76,16.5
0.64,-0.19,0.67,-20.15,48.01,17.7
0.65,-0.18,0.67,-19.32,47.19,18.77
0.66,-0.18,0.68,-18.46,46.49,19.75
0.67,-0.19,0.69,-17.67,46.06,20.76
0.67,-0.19,0.69,-17.12,46.02,21.89
0.67,-0.19,0.69,-17.12,46.02,21.89
0.66,-0.19,0.7,-16.8,46.26,23.02
0.64,-0.19,0.71,-16.68,46.67,24.03
0.61,-0.19,0.72,-16.78,46.98,24.89
0.58,-0.19,0.72,-17.13,46.95,25.52
0.56,-0.18,0.72,-17.72,46.4,25.78
0.56,-0.18,0.72,-17.72,46.4,25.78
0.56,-0.19,0.71,-18.42,45.41,25.66
0.59,-0.21,0.71,-19.05,44.08,25.41
0.61,-0.23,0.71,-19.49,42.63,25.33
0.62,-0.25,0.7,-19.63,41.21,25.61
0.64,-0.26,0.69,-19.27,39.94,26.29
0.64,-0.26,0.69,-19.27,39.94,26.29
0.65,-0.26,0.69,-18.3,38.97,27.38
0.64,-0.24,0.71,-16.82,38.5,28.74
0.6,-0.23,0.73,-15.17,38.35,30.15
0.56,-0.21,0.75,-13.9,38.13,31.35
0.55,-0.21,0.75,-13.46,37.69,32.13
0.55,-0.21,0.75,-13.46,37.69,32.13
0.56,-0.22,0.73,-13.74,37.11,32.53
0.56,-0.24,0.73,-14.13,36.49,32.74
0.54,-0.26,0.74,-14.36,35.67,32.99
0.5,-0.26,0.74,-14.62,34.35,33.29
0.49,-0.26,0.74,-14.98,32.37,33.49
0.49,-0.26,0.74,-14.98,32.37,33.49
0.49,-0.26,0.74,-15.34,29.86,33.53
0.51,-0.26,0.74,-15.64,27.11,33.41
0.54,-0.27,0.74,-15.99,24.34,33.15
0.57,-0.27,0.73,-16.31,21.88,32.82
0.58,-0.27,0.73,-16.5,19.89,32.5
0.58,-0.27,0.73,-16.5,19.89,32.5
0.59,-0.26,0.73,-16.73,18.54,32.27
0.6,-0.26,0.72,-17.11,17.84,32.18
0.6,-0.26,0.72,-17.79,17.71,32.22
0.61,-0.27,0.71,-18.79,18.23,32.31
0.61,-0.28,0.72,-19.97,19.4,32.44
0.61,-0.28,0.72,-19.97,19.4,32.44
0.58,-0.27,0.72,-21.26,21.03,32.54
0.54,-0.27,0.72,-22.69,22.75,32.4
0.53,-0.29,0.71,-24.43,24.34,31.93
0.53,-0.31,0.7,-26.4,25.85,31.29
0.54,-0.33,0.7,-28.28,27.34,30.61
0.54,-0.33,0.7,-28.28,27.34,30.61
0.54,-0.34,0.69,-29.89,28.91,29.79
0.54,-0.36,0.68,-31.17,30.62,28.84
0.53,-0.36,0.68,-31.96,32.38,27.88
0.52,-0.37,0.67,-32.26,34.03,26.99
0.52,-0.37,0.67,-32.13,35.61,26.17
0.52,-0.37,0.67,-32.13,35.61,26.17
0.52,-0.36,0.69,-31.62,37.17,25.36
0.52,-0.35,0.7,-31.0,38.87,24.58
0.52,-0.33,0.71,-30.54,40.74,23.75
0.52,-0.33,0.71,-30.41,42.78,22.85
0.53,-0.33,0.72,-30.74,45.07,21.93
0.53,-0.33,0.72,-30.74,45.07,21.93
0.53,-0.34,0.72,-31.46,47.77,20.93
0.53,-0.35,0.71,-32.36,50.89,19.85
0.51,-0.36,0.7,-33.3,54.24,18.76
0.49,-0.37,0.7,-34.2,57.58,17.78
0.47,-0.37,0.7,-34.93,60.78,16.91
0.47,-0.37,0.7,-34.93,60.78,16.91
0.47,-0.37,0.71,-35.36,63.88,16.07
0.48,-0.38,0.72,-35.55,67.02,15.22
0.48,-0.39,0.72,-35.58,70.31,14.48
0.47,-0.39,0.73,-35.42,73.71,13.87
0.43,-0.39,0.73,-35.1,77.12,13.23
0.43,-0.39,0.73,-35.1,77.12,13.23
0.39,-0.39,0.74,-34.65,80.21,12.36
0.36,-0.4,0.73,-34.14,82.6,11.25
0.34,-0.41,0.73,-33.44,84.14,10.22
0.33,-0.42,0.74,-32.43,84.84,9.4
0.33,-0.42,0.76,-31.08,84.75,8.86
0.33,-0.42,0.76,-31.08,84.75,8.86
0.32,-0.41,0.78,-29.47,84.02,8.64
0.31,-0.39,0.8,-27.76,82.73,8.56
0.31,-0.38,0.81,-26.21,81.06,8.4
0.32,-0.37,0.83,-24.92,79.26,8.01
0.32,-0.37,0.84,-23.99,77.54,7.49
0.32,-0.37,0.84,-23.99,77.54,7.49
0.32,-0.37,0.85,-23.58,75.97,6.95
0.31,-0.37,0.84,-23.64,74.58,6.38
0.31,-0.38,0.84,-23.89,73.36,5.76
0.31,-0.39,0.86,-24.16,72.33,5.11
0.29,-0.39,0.86,-24.49,71.36,4.47
0.29,-0.39,0.86,-24.49,71.36,4.47
0.26,-0.39,0.85,-25.0,70.2,3.88
0.25,-0.4,0.84,-25.54,68.6,3.37
0.25,-0.41,0.83,-25.87,66.6,2.87
0.27,-0.42,0.84,-25.87,64.45,2.46
0.28,-0.42,0.84,-25.59,62.35,2.16
0.28,-0.42,0.84,-25.59,62.35,2.16
0.28,-0.43,0.84,-25.22,60.44,1.99
0.3,-0.43,0.83,-24.75,58.91,1.82
0.31,-0.44,0.83,-24.06,57.93,1.51
0.32,-0.45,0.82,-23.04,57.57,1.01
0.32,-0.45,0.83,-21.78,57.81,0.39
0.32,-0.45,0.83,-21.78,57.81,0.39
0.31,-0.45,0.83,-20.39,58.6,-0.27
0.31,-0.46,0.82,-18.89,59.94,-1.06
0.3,-0.46,0.82,-17.33,61.74,-1.98
0.28,-0.46,0.81,-15.73,63.77,-2.88
0.25,-0.46,0.81,-14.05,65.82,-3.7
0.25,-0.46,0.81,-14.05,65.82,-3.7
0.22,-0.46,0.81,-12.23,67.42,-4.5
0.18,-0.46,0.8,-10.3,68.04,-5.12
0.15,-0.45,0.8,-8.27,67.53,-5.47
0.13,-0.45,0.8,-6.01,65.97,-5.42
0.14,-0.45,0.81,-3.4,63.4,-5.12
0.14,-0.45,0.81,-3.4,63.4,-5.12
0.15,-0.45,0.82,-0.44,60.16,-4.63
0.15,-0.43,0.83,2.66,56.47,-3.98
0.16,-0.42,0.84,5.71,52.57,-3.23
0.19,-0.4,0.86,8.57,48.83,-2.49
0.22,-0.4,0.87,11.11,45.68,-1.84
0.22,-0.4,0.87,11.11,45.68,-1.84
0.23,-0.39,0.87,13.23,43.41,-1.2
0.22,-0.38,0.88,14.81,42.06,-0.68
0.19,-0.36,0.88,15.68,41.43,-0.37
0.17,-0.35,0.88,15.87,41.18,-0.48
0.17,-0.35,0.87,15.52,41.12,-1.09
0.17,-0.35,0.87,15.52,41.12,-1.09
0.19,-0.36,0.87,14.79,41.33,-2.05
0.2,-0.38,0.87,13.81,41.95,-3.04
0.22,-0.39,0.86,12.71,43.12,-3.87
0.22,-0.4,0.85,11.65,44.76,-4.55
0.22,-0.42,0.84,10.86,46.83,-5.08
0.22,-0.42,0.84,10.86,46.83,-5.08
0.21,-0.44,0.83,10.59,49.19,-5.46
0.19,-0.45,0.82,10.99,51.55,-5.47
0.16,-0.45,0.82,12.09,53.6,-5.05
0.14,-0.45,0.81,13.86,55.22,-4.25
0.12,-0.44,0.81,16.2,56.37,-3.25
0.12,-0.44,0.81,16.2,56.37,-3.25
0.11,-0.44,0.81,19.01,57.19,-2.27
0.11,-0.43,0.82,22.16,57.87,-1.35
0.1,-0.42,0.82,25.51,58.49,-0.82
0.09,-0.42,0.82,28.96,59.1,-0.87
0.08,-0.41,0.82,32.49,59.84,-1.6
0.08,-0.41,0.82,32.49,59.84,-1.6
0.07,-0.4,0.82,35.87,60.74,-3.02
0.08,-0.4,0.83,38.91,61.81,-5.12
0.08,-0.4,0.84,41.55,63.25,-7.8
0.07,-0.38,0.85,43.84,65.31,-11.22
0.06,-0.35,0.86,45.78,67.83,-15.38
0.06,-0.35,0.86,45.78,67.83,-15.38
0.07,-0.33,0.87,47.08,70.61,-19.91
0.09,-0.32,0.89,47.53,73.58,-24.23
0.1,-0.32,0.89,47.21,76.41,-27.65
0.1,-0.33,0.89,46.17,78.8,-29.6
0.08,-0.34,0.9,44.55,80.52,-29.93
0.08,-0.34,0.9,44.55,80.52,-29.93
0.02,-0.35,0.89,42.56,81.28,-28.89
-0.03,-0.36,0.89,40.55,80.8,-27.05
-0.08,-0.38,0.88,38.98,78.99,-25.07
-0.1,-0.4,0.87,38.29,75.82,-23.33
-0.08,-0.43,0.88,38.76,71.54,-21.93
-0.08,-0.43,0.88,38.76,71.54,-21.93
-0.06,-0.44,0.88,40.48,66.67,-20.76
-0.03,-0.44,0.89,43.43,61.68,-19.82
-0.01,-0.44,0.88,47.51,57.03,-19.15
0.01,-0.44,0.89,52.59,53.13,-18.63
0.02,-0.42,0.9,58.52,50.14,-18.06
0.02,-0.42,0.9,58.52,50.14,-18.06
0.01,-0.38,0.91,65.01,48.03,-17.49
-0.01,-0.34,0.93,71.59,46.56,-17.1
-0.04,-0.29,0.95,77.93,45.59,-17.07
-0.06,-0.26,0.97,83.84,44.88,-17.33
-0.06,-0.26,0.97,89.17,44.16,-17.73
-0.07,-0.23,0.99,89.17,44.16,-17.73
-0.08,-0.2,1.01,93.82,43.08,-18.06
-0.1,-0.15,1.03,97.66,41.38,-18.14
-0.12,-0.11,1.06,100.39,38.95,-17.92
-0.14,-0.08,1.09,101.81,35.77,-17.44
-0.14,-0.08,1.09,101.85,31.95,-16.88
-0.15,-0.05,1.1,101.85,31.95,-16.88
-0.15,-0.03,1.11,100.59,27.62,-16.44
-0.14,-0.02,1.11,98.27,22.93,-16.23
-0.13,-0.02,1.11,95.02,18.07,-16.22
-0.11,-0.02,1.11,91.11,13.23,-16.43
-0.11,-0.02,1.11,91.11,13.23,-16.43
-0.09,-0.03,1.1,86.8,8.59,-16.74
-0.07,-0.03,1.08,82.21,4.27,-16.99
-0.04,-0.05,1.06,77.56,0.32,-16.9
-0.02,-0.06,1.04,73.27,-3.3,-16.36
-0.01,-0.08,1.03,69.61,-6.48,-15.46
-0.01,-0.08,1.03,69.61,-6.48,-15.46
-0.01,-0.08,1.02,66.62,-9.19,-14.43
-0.0,-0.09,1.01,64.18,-11.39,-13.44
0.0,-0.1,1.01,62.24,-12.98,-12.67
0.0,-0.11,1.0,60.83,-13.87,-12.31
0.0,-0.11,0.98,60.0,-14.11,-12.39
0.0,-0.11,0.98,60.0,-14.11,-12.39
0.01,-0.11,0.97,59.84,-13.87,-12.78
0.02,-0.1,0.97,60.29,-13.19,-13.36
0.03,-0.08,0.97,61.22,-12.17,-14.01
0.03,-0.07,0.97,62.53,-10.81,-14.58
0.02,-0.05,0.97,63.99,-9.28,-15.0
0.02,-0.05,0.97,63.99,-9.28,-15.0
0.02,-0.01,0.99,65.32,-7.79,-15.19
0.02,0.01,0.99,66.27,-6.28,-15.29
0.03,0.02,0.99,66.7,-4.73,-15.25
0.03,0.04,1.0,66.62,-3.17,-15.03
0.03,0.05,1.01,65.93,-1.49,-14.71
0.03,0.05,1.01,65.93,-1.49,-14.71
0.04,0.06,1.02,64.7,0.4,-14.39
0.03,0.06,1.01,63.05,2.56,-14.16
0.02,0.05,1.01,61.11,4.84,-13.9
0.0,0.05,1.0,58.99,6.98,-13.52
-0.01,0.05,0.99,56.72,8.82,-13.07
-0.01,0.05,0.99,56.72,8.82,-13.07
-0.02,0.05,0.99,54.4,10.21,-12.56
-0.03,0.05,0.99,52.08,11.04,-12.0
-0.03,0.05,0.98,49.96,11.31,-11.29
-0.03,0.06,0.98,48.05,11.17,-10.51
-0.03,0.06,0.98,46.34,10.8,-9.75
-0.03,0.06,0.98,46.34,10.8,-9.75
-0.03,0.07,0.99,44.69,10.3,-9.11
-0.03,0.07,0.99,43.05,9.84,-8.69
-0.02,0.08,0.99,41.39,9.57,-8.49
-0.01,0.07,0.99,39.74,9.55,-8.39
0.01,0.05,0.98,38.14,9.89,-8.35
0.01,0.05,0.98,38.14,9.89,-8.35
0.02,0.03,0.97,36.83,10.79,-8.22
0.01,0.02,0.96,36.15,12.18,-7.88
0.0,0.02,0.95,36.19,13.91,-7.36
-0.01,0.03,0.95,36.89,15.87,-6.76
-0.01,0.03,0.95,38.17,17.97,-6.12
-0.01,0.03,0.95,38.17,17.97,-6.12
-0.02,0.05,0.96,39.84,20.17,-5.41
-0.03,0.07,0.96,41.63,22.36,-4.59
-0.06,0.09,0.97,43.31,24.42,-3.78
-0.08,0.11,0.97,44.77,26.18,-3.14
-0.1,0.13,0.98,45.95,27.51,-2.63
-0.1,0.13,0.98,45.95,27.51,-2.63
-0.1,0.15,0.99,46.74,28.41,-2.12
-0.11,0.17,1.01,46.92,28.85,-1.56
-0.12,0.19,1.02,46.37,28.88,-1.06
-0.12,0.2,1.02,44.98,28.53,-0.78
-0.11,0.19,1.01,42.89,28.01,-0.75
-0.11,0.19,1.01,42.89,28.01,-0.75
-0.09,0.19,1.01,40.3,27.54,-0.87
-0.08,0.18,1.01,37.22,27.19,-1.05
-0.07,0.17,1.01,33.77,27.14,-1.25
-0.08,0.16,1.0,30.16,27.4,-1.48
-0.1,0.15,0.99,26.57,27.78,-1.75
-0.1,0.15,0.99,26.57,27.78,-1.75
-0.11,0.14,0.98,23.24,28.13,-1.98
-0.13,0.12,0.97,20.32,28.17,-2.12
-0.14,0.11,0.97,17.95,27.81,-2.16
-0.14,0.09,0.96,16.2,27.05,-2.06
-0.13,0.08,0.95,15.18,26.02,-1.94
-0.13,0.08,0.95,15.18,26.02,-1.94
-0.12,0.07,0.95,14.96,25.02,-1.87
-0.11,0.08,0.95,15.46,24.26,-1.89
-0.09,0.08,0.96,16.52,23.94,-1.9
-0.08,0.08,0.95,17.98,24.22,-1.9
-0.08,0.08,0.95,19.81,25.12,-1.8
-0.08,0.08,0.95,19.81,25.12,-1.8
-0.09,0.08,0.94,22.02,26.51,-1.6
-0.09,0.08,0.94,24.7,28.24,-1.26
-0.11,0.07,0.94,27.85,30.2,-0.77
-0.13,0.08,0.94,31.53,32.17,-0.16
-0.15,0.09,0.94,35.73,33.87,0.6
-0.15,0.09,0.94,35.73,33.87,0.6
-0.18,0.11,0.95,40.3,35.15,1.43
-0.2,0.13,0.95,45.05,35.94,2.22
-0.21,0.16,0.96,49.77,36.22,2.91
-0.21,0.17,0.97,54.4,36.12,3.43
-0.21,0.18,0.97,58.82,35.9,3.75
-0.21,0.18,0.97,58.82,35.9,3.75
-0.22,0.2,0.97,63.06,35.63,3.84
-0.23,0.23,0.97,67.04,35.31,3.73
-0.24,0.25,0.97,70.69,34.89,3.45
-0.25,0.28,0.98,73.84,34.27,3.01
-0.26,0.3,0.98,76.35,33.28,2.44
-0.26,0.3,0.98,76.35,33.28,2.44
-0.26,0.32,0.99,78.2,31.81,1.86
-0.26,0.33,0.98,79.44,30.06,1.21
-0.26,0.33,0.98,80.17,28.17,0.42
-0.25,0.34,0.98,80.49,26.16,-0.42
-0.25,0.35,0.97,80.37,24.07,-1.19
-0.25,0.35,0.97,80.37,24.07,-1.19
-0.25,0.37,0.97,79.79,21.95,-1.93
-0.25,0.38,0.97,78.73,19.68,-2.68
-0.23,0.39,0.96,77.12,17.35,-3.38
-0.2,0.39,0.97,74.96,15.16,-3.93
-0.17,0.38,0.97,72.45,13.47,-4.24
-0.17,0.38,0.97,72.45,13.47,-4.24
-0.17,0.37,0.97,69.78,12.51,-4.31
-0.17,0.37,0.97,67.05,12.18,-4.18
-0.17,0.38,0.95,64.16,12.48,-4.09
-0.17,0.37,0.94,61.26,13.34,-4.17
-0.17,0.35,0.93,58.91,14.45,-4.22
-0.17,0.35,0.93,58.91,14.45,-4.22
-0.16,0.33,0.93,57.17,15.75,-4.19
-0.15,0.3,0.9,56.04,17.5,-4.22
-0.16,0.28,0.89,55.83,19.99,-4.49
-0.17,0.27,0.87,56.77,23.02,-5.03
-0.18,0.28,0.86,58.8,26.25,-5.68
-0.18,0.28,0.86,58.8,26.25,-5.68
-0.19,0.31,0.87,61.76,29.49,-6.29
-0.2,0.36,0.89,65.27,32.57,-6.73
-0.22,0.4,0.9,68.64,35.19,-6.94
-0.24,0.45,0.92,71.56,37.19,-6.76
-0.26,0.49,0.93,73.79,38.56,-6.08
-0.26,0.49,0.93,73.79,38.56,-6.08
-0.27,0.53,0.95,74.99,39.17,-4.94
-0.29,0.56,0.96,74.94,39.14,-3.57
-0.31,0.58,0.96,73.71,38.53,-2.12
-0.33,0.59,0.97,71.23,37.28,-0.82
-0.33,0.6,0.96,67.66,35.47,0.24
-0.33,0.6,0.96,67.66,35.47,0.24
-0.34,0.61,0.97,63.02,33.19,0.96
-0.33,0.61,0.97,57.32,30.52,1.29
-0.33,0.6,0.97,50.76,27.59,1.35
-0.32,0.59,0.96,43.65,24.5,1.3
