ax,ay,az,gx,gy,gz
-0.0,-0.63,0.75,2.94,1.02,-0.38
-0.02,-0.6,0.77,3.7,1.1,-0.36
-0.03,-0.58,0.77,4.27,1.16,-0.52
-0.02,-0.57,0.78,4.31,0.99,-0.83
-0.01,-0.58,0.78,3.8,0.58,-1.13
-0.0,-0.59,0.78,2.87,0.08,-1.32
-0.0,-0.59,0.78,2.87,0.08,-1.32
0.0,-0.6,0.78,1.8,-0.43,-1.35
-0.0,-0.61,0.77,0.87,-0.84,-1.3
-0.0,-0.62,0.76,0.16,-1.0,-1.38
0.01,-0.63,0.76,-0.33,-0.81,-1.68
0.01,-0.64,0.76,-0.53,-0.41,-2.03
0.01,-0.64,0.76,-0.53,-0.41,-2.03
0.01,-0.64,0.75,-0.31,0.11,-2.29
0.0,-0.64,0.75,0.38,0.64,-2.42
-0.01,-0.62,0.76,1.4,1.06,-2.44
-0.01,-0.6,0.77,2.48,1.32,-2.43
-0.01,-0.6,0.78,3.43,1.45,-2.42
-0.01,-0.6,0.78,3.43,1.45,-2.42
-0.01,-0.59,0.78,4.12,1.53,-2.39
-0.01,-0.59,0.78,4.55,1.56,-2.28
-0.01,-0.59,0.78,4.78,1.54,-2.05
-0.02,-0.59,0.77,4.89,1.42,-1.72
-0.02,-0.6,0.77,4.95,1.18,-1.4
-0.02,-0.6,0.77,4.95,1.18,-1.4
-0.02,-0.6,0.77,5.04,0.83,-1.21
-0.01,-0.61,0.77,5.13,0.43,-1.07
-0.01,-0.61,0.76,5.31,0.06,-0.95
-0.0,-0.61,0.76,5.54,-0.21,-0.84
-0.0,-0.61,0.75,5.82,-0.38,-0.72
-0.0,-0.61,0.75,5.82,-0.38,-0.72
-0.01,-0.6,0.76,6.21,-0.48,-0.61
-0.01,-0.58,0.76,6.58,-0.48,-0.62
-0.01,-0.57,0.77,6.69,-0.44,-0.74
-0.0,-0.57,0.78,6.31,-0.34,-0.93
0.01,-0.58,0.77,5.48,-0.09,-1.14
0.01,-0.58,0.77,5.48,-0.09,-1.14
0.01,-0.59,0.77,4.35,0.33,-1.35
0.0,-0.61,0.76,3.22,0.87,-1.44
-0.01,-0.62,0.75,2.35,1.37,-1.48
-0.01,-0.63,0.74,1.86,1.81,-1.54
-0.01,-0.63,0.73,1.83,2.11,-1.57
-0.01,-0.63,0.73,1.83,2.11,-1.57
-0.01,-0.63,0.74,2.32,2.27,-1.54
-0.01,-0.63,0.73,3.31,2.41,-1.45
-0.02,-0.61,0.74,4.78,2.44,-1.34
-0.03,-0.59,0.76,6.38,2.26,-1.22
-0.02,-0.57,0.77,7.76,1.89,-1.11
-0.02,-0.57,0.77,7.76,1.89,-1.11
-0.02,-0.56,0.78,8.71,1.49,-1.01
-0.01,-0.55,0.79,9.17,1.19,-0.94
-0.0,-0.55,0.79,9.18,1.07,-0.84
0.0,-0.56,0.79,8.82,1.17,-0.64
-0.0,-0.57,0.78,8.14,1.55,-0.41
-0.0,-0.57,0.78,8.14,1.55,-0.41
-0.01,-0.59,0.76,7.34,2.16,-0.27
-0.01,-0.6,0.75,6.69,2.78,-0.22
-0.01,-0.61,0.74,6.42,3.34,-0.21
-0.01,-0.62,0.74,6.54,3.74,-0.15
-0.01,-0.62,0.75,7.0,3.98,-0.05
-0.01,-0.62,0.75,7.0,3.98,-0.05
-0.02,-0.62,0.75,7.72,4.12,0.03
-0.02,-0.62,0.74,8.78,4.32,0.01
-0.01,-0.61,0.75,10.17,4.39,-0.03
-0.01,-0.6,0.76,11.68,4.38,0.04
-0.0,-0.59,0.77,13.13,4.44,0.18
-0.0,-0.59,0.77,13.13,4.44,0.18
-0.0,-0.59,0.77,14.47,4.61,0.33
0.0,-0.6,0.76,15.66,4.95,0.42
0.01,-0.61,0.76,16.81,5.4,0.59
-0.01,-0.61,0.77,18.04,5.99,0.86
-0.02,-0.61,0.77,19.43,6.63,1.1
-0.02,-0.61,0.77,19.43,6.63,1.1
-0.04,-0.6,0.77,21.0,7.06,1.17
-0.05,-0.58,0.79,22.59,7.15,1.09
-0.05,-0.56,0.81,23.91,6.9,0.9
-0.05,-0.54,0.82,24.78,6.38,0.71
-0.04,-0.54,0.82,25.15,5.71,0.5
-0.04,-0.54,0.82,25.15,5.71,0.5
-0.03,-0.54,0.82,25.14,5.06,0.28
-0.02,-0.54,0.81,24.91,4.54,0.1
-0.02,-0.55,0.81,24.53,4.16,-0.0
-0.01,-0.56,0.81,24.13,4.08,-0.14
-0.01,-0.58,0.8,23.9,4.37,-0.32
-0.01,-0.58,0.8,23.9,4.37,-0.32
-0.01,-0.58,0.79,24.01,4.96,-0.51
-0.02,-0.58,0.79,24.65,5.68,-0.67
-0.02,-0.57,0.79,25.86,6.38,-0.77
-0.03,-0.56,0.8,27.48,6.94,-0.73
-0.03,-0.54,0.81,29.31,7.37,-0.56
-0.03,-0.54,0.81,29.31,7.37,-0.56
-0.04,-0.51,0.83,31.12,7.68,-0.29
-0.05,-0.48,0.85,32.61,7.86,-0.02
-0.07,-0.45,0.86,33.44,7.79,0.22
-0.07,-0.43,0.87,33.33,7.4,0.42
-0.07,-0.43,0.88,32.18,6.68,0.53
-0.07,-0.43,0.88,32.18,6.68,0.53
-0.06,-0.44,0.88,30.07,5.85,0.55
-0.05,-0.45,0.87,27.18,5.09,0.46
-0.04,-0.48,0.86,23.9,4.36,0.39
-0.04,-0.5,0.84,20.66,3.66,0.38
-0.04,-0.53,0.83,17.75,2.98,0.29
-0.04,-0.53,0.83,17.75,2.98,0.29
-0.03,-0.55,0.81,15.43,2.44,0.07
-0.02,-0.58,0.8,14.02,2.11,-0.19
-0.0,-0.6,0.78,13.58,2.06,-0.51
0.01,-0.61,0.77,14.17,2.5,-0.92
0.02,-0.62,0.77,15.83,3.41,-1.31
0.02,-0.62,0.77,15.83,3.41,-1.31
0.02,-0.62,0.76,18.58,4.71,-1.45
-0.01,-0.59,0.76,22.38,6.23,-1.36
-0.04,-0.55,0.78,26.98,7.69,-1.27
-0.05,-0.5,0.81,31.77,8.76,-1.21
-0.06,-0.47,0.85,35.94,9.31,-1.14
-0.06,-0.47,0.85,35.94,9.31,-1.14
-0.06,-0.44,0.86,38.94,9.43,-1.12
-0.06,-0.43,0.87,40.77,9.43,-1.31
-0.05,-0.43,0.87,41.63,9.33,-1.67
-0.05,-0.43,0.88,41.64,9.08,-1.99
-0.05,-0.42,0.88,40.97,8.79,-2.22
-0.05,-0.42,0.88,40.97,8.79,-2.22
-0.05,-0.43,0.88,39.76,8.56,-2.41
-0.04,-0.44,0.87,38.23,8.41,-2.64
-0.04,-0.46,0.86,36.67,8.24,-2.79
-0.03,-0.48,0.84,35.34,8.06,-2.8
-0.03,-0.5,0.83,34.49,7.88,-2.7
-0.03,-0.5,0.83,34.49,7.88,-2.7
-0.02,-0.52,0.82,34.34,7.78,-2.56
-0.01,-0.54,0.81,35.03,7.94,-2.49
0.0,-0.56,0.81,36.7,8.44,-2.46
0.01,-0.57,0.81,39.4,9.4,-2.47
0.02,-0.57,0.8,43.15,10.95,-2.66
0.02,-0.57,0.8,43.15,10.95,-2.66
0.02,-0.58,0.8,47.93,13.08,-2.99
0.02,-0.57,0.8,53.65,15.65,-3.36
0.02,-0.54,0.81,60.08,18.63,-3.8
0.01,-0.51,0.83,66.98,21.94,-4.31
0.0,-0.47,0.84,73.95,25.46,-4.76
0.0,-0.47,0.84,73.95,25.46,-4.76
-0.02,-0.43,0.85,80.71,29.0,-5.08
-0.04,-0.39,0.86,86.99,32.38,-5.31
-0.07,-0.35,0.87,92.54,35.42,-5.54
-0.1,-0.32,0.88,97.27,37.96,-5.75
-0.12,-0.28,0.89,101.15,39.83,-5.88
-0.12,-0.28,0.89,101.15,39.83,-5.88
-0.14,-0.24,0.9,104.08,40.94,-5.88
-0.15,-0.2,0.92,106.05,41.21,-5.69
-0.17,-0.17,0.94,106.83,40.59,-5.37
-0.18,-0.15,0.95,106.33,39.35,-5.21
-0.18,-0.14,0.95,104.61,37.64,-5.27
-0.18,-0.14,0.95,104.61,37.64,-5.27
-0.18,-0.13,0.95,101.82,35.5,-5.47
-0.17,-0.14,0.96,98.13,32.96,-5.62
-0.14,-0.15,0.95,93.85,30.3,-5.69
-0.12,-0.18,0.94,89.39,27.87,-5.65
-0.11,-0.21,0.93,85.11,25.86,-5.46
-0.11,-0.21,0.93,85.11,25.86,-5.46
-0.1,-0.23,0.91,81.24,24.38,-5.14
-0.11,-0.24,0.9,78.05,23.37,-4.78
-0.11,-0.25,0.9,75.76,22.75,-4.4
-0.11,-0.25,0.89,74.37,22.45,-4.04
-0.11,-0.24,0.89,73.72,22.4,-3.66
-0.11,-0.24,0.89,73.72,22.4,-3.66
-0.12,-0.22,0.89,73.65,22.43,-3.15
-0.14,-0.2,0.91,73.97,22.46,-2.52
-0.15,-0.18,0.91,74.46,22.4,-1.89
-0.16,-0.17,0.92,74.99,22.11,-1.29
-0.16,-0.17,0.92,75.54,21.67,-0.86
-0.16,-0.17,0.92,75.54,21.67,-0.86
-0.15,-0.16,0.93,76.04,21.27,-0.73
-0.13,-0.15,0.93,76.47,20.94,-0.69
-0.13,-0.14,0.95,76.78,20.73,-0.62
-0.13,-0.13,0.96,76.86,20.62,-0.48
-0.13,-0.13,0.96,76.65,20.63,-0.43
-0.13,-0.13,0.96,76.65,20.63,-0.43
-0.13,-0.13,0.97,76.18,20.79,-0.52
-0.12,-0.13,0.97,75.47,21.09,-0.67
-0.12,-0.13,0.98,74.63,21.49,-0.75
-0.13,-0.13,0.97,73.72,22.0,-0.74
-0.15,-0.13,0.96,72.91,22.53,-0.82
-0.15,-0.13,0.96,72.91,22.53,-0.82
-0.18,-0.12,0.95,72.44,22.92,-1.06
-0.19,-0.11,0.95,72.3,23.05,-1.27
-0.21,-0.07,0.95,72.27,22.75,-1.42
-0.22,-0.04,0.95,72.15,21.96,-1.48
-0.22,-0.01,0.96,71.77,20.71,-1.48
-0.22,-0.01,0.96,71.77,20.71,-1.48
-0.21,0.01,0.98,70.93,19.11,-1.39
-0.2,0.01,0.98,69.55,17.45,-1.24
-0.17,-0.0,0.96,67.64,15.94,-0.98
-0.15,-0.02,0.96,65.56,14.68,-0.42
-0.14,-0.04,0.95,63.67,13.86,0.49
-0.14,-0.04,0.95,63.67,13.86,0.49
-0.14,-0.06,0.94,62.27,13.52,1.55
-0.14,-0.08,0.93,61.53,13.77,2.46
-0.14,-0.08,0.94,61.38,14.54,3.14
-0.14,-0.07,0.94,61.82,15.81,3.67
-0.15,-0.06,0.95,62.67,17.41,4.12
-0.15,-0.06,0.95,62.67,17.41,4.12
-0.16,-0.04,0.96,63.79,19.17,4.48
-0.17,-0.03,0.96,64.96,20.96,4.78
-0.18,-0.02,0.97,66.01,22.6,5.11
-0.19,-0.01,0.97,66.95,24.05,5.37
-0.2,-0.01,0.97,67.95,25.4,5.38
-0.2,-0.01,0.97,67.95,25.4,5.38
-0.2,-0.01,0.97,69.05,26.54,5.24
-0.21,0.01,0.98,70.21,27.33,5.15
-0.22,0.02,0.99,71.34,27.6,5.27
-0.23,0.04,0.99,72.41,27.4,5.54
-0.23,0.05,0.98,73.34,26.75,5.87
-0.23,0.05,0.98,73.34,26.75,5.87
-0.25,0.06,1.0,74.29,25.59,6.31
-0.26,0.08,0.99,75.1,24.12,6.63
-0.24,0.09,0.98,75.69,22.47,6.77
-0.22,0.09,0.98,76.02,20.83,6.98
-0.21,0.08,0.96,76.08,19.47,7.31
-0.21,0.08,0.96,76.08,19.47,7.31
-0.21,0.08,0.94,76.27,18.52,7.72
-0.22,0.07,0.92,77.07,17.74,8.24
-0.23,0.07,0.9,78.66,17.05,8.77
-0.23,0.08,0.87,81.02,16.66,9.04
-0.23,0.09,0.86,84.01,16.74,8.91
-0.23,0.09,0.86,84.01,16.74,8.91
-0.22,0.12,0.87,87.42,17.12,8.67
-0.22,0.15,0.87,90.97,17.67,8.57
-0.21,0.17,0.87,94.36,18.31,8.66
-0.22,0.2,0.88,97.32,19.04,8.89
-0.22,0.22,0.89,99.64,19.8,9.28
-0.22,0.22,0.89,99.64,19.8,9.28
-0.23,0.24,0.89,101.18,20.57,9.71
-0.23,0.26,0.89,101.94,21.37,10.05
-0.24,0.27,0.89,102.1,22.21,10.31
-0.24,0.27,0.89,101.73,23.02,10.59
-0.26,0.28,0.88,100.97,23.69,10.92
-0.26,0.28,0.88,100.97,23.69,10.92
-0.28,0.3,0.88,100.01,24.22,11.21
-0.29,0.32,0.88,98.9,24.62,11.3
-0.29,0.34,0.89,97.64,24.75,11.17
-0.29,0.36,0.89,96.01,24.55,10.88
-0.29,0.37,0.89,93.91,24.11,10.45
-0.29,0.37,0.89,93.91,24.11,10.45
-0.3,0.39,0.89,91.35,23.47,9.99
-0.3,0.39,0.89,88.34,22.5,9.63
-0.3,0.39,0.88,85.01,20.98,9.44
-0.29,0.38,0.87,81.5,19.14,9.31
-0.27,0.36,0.86,78.01,17.33,9.01
-0.27,0.36,0.86,78.01,17.33,9.01
-0.26,0.35,0.86,74.83,15.68,8.66
-0.25,0.36,0.86,72.09,14.33,8.49
-0.25,0.36,0.86,69.81,13.26,8.51
-0.25,0.37,0.86,67.94,12.53,8.59
-0.26,0.39,0.86,66.27,12.1,8.66
-0.26,0.39,0.86,66.27,12.1,8.66
-0.26,0.4,0.86,64.61,11.89,8.72
-0.25,0.41,0.86,62.76,11.85,8.82
-0.25,0.41,0.86,60.66,11.95,8.97
-0.25,0.41,0.86,58.38,12.2,9.07
-0.25,0.41,0.86,56.01,12.58,9.16
-0.25,0.41,0.86,56.01,12.58,9.16
-0.26,0.4,0.86,53.77,13.03,9.35
-0.26,0.4,0.86,51.79,13.54,9.65
-0.28,0.4,0.86,50.04,14.0,9.93
-0.29,0.39,0.86,48.48,14.24,10.06
-0.29,0.39,0.86,47.06,14.23,9.96
-0.3,0.4,0.86,47.06,14.23,9.96
-0.3,0.4,0.84,45.86,14.17,9.56
-0.3,0.41,0.84,45.0,14.09,9.02
-0.29,0.42,0.85,44.36,13.93,8.54
-0.3,0.43,0.85,43.7,13.76,8.15
-0.3,0.43,0.85,42.9,13.61,7.78
-0.31,0.44,0.85,42.9,13.61,7.78
-0.31,0.45,0.85,41.87,13.43,7.38
-0.31,0.45,0.85,40.57,13.14,7.0
-0.3,0.45,0.84,39.1,12.82,6.66
-0.28,0.43,0.84,37.53,12.57,6.45
-0.28,0.43,0.84,37.53,12.57,6.45
-0.27,0.42,0.83,36.03,12.72,6.31
-0.26,0.4,0.82,34.88,13.4,6.25
-0.27,0.4,0.81,34.36,14.54,6.35
-0.28,0.39,0.82,34.49,16.06,6.51
-0.29,0.4,0.82,35.1,17.79,6.7
-0.29,0.4,0.82,35.1,17.79,6.7
-0.3,0.41,0.83,35.95,19.54,6.87
-0.31,0.43,0.83,36.81,21.15,7.08
-0.33,0.44,0.83,37.52,22.47,7.27
-0.33,0.45,0.83,38.03,23.4,7.39
-0.34,0.46,0.84,38.26,23.95,7.38
-0.34,0.46,0.84,38.26,23.95,7.38
-0.34,0.47,0.84,38.21,24.08,7.32
-0.34,0.48,0.85,37.81,23.78,7.2
-0.34,0.48,0.84,37.04,23.23,6.92
-0.33,0.46,0.84,36.01,22.5,6.6
-0.31,0.44,0.83,34.85,21.7,6.31
-0.31,0.44,0.83,34.85,21.7,6.31
-0.31,0.42,0.81,33.9,21.15,5.92
-0.3,0.41,0.8,33.62,21.04,5.41
-0.3,0.41,0.8,34.18,21.38,4.94
-0.31,0.43,0.8,35.48,22.05,4.62
-0.31,0.45,0.8,37.17,22.82,4.46
-0.31,0.45,0.8,37.17,22.82,4.46
-0.33,0.47,0.8,38.88,23.5,4.41
-0.33,0.49,0.8,40.36,23.94,4.48
-0.34,0.51,0.8,41.46,24.03,4.67
-0.34,0.53,0.8,42.17,23.8,5.03
-0.35,0.56,0.8,42.41,23.34,5.69
-0.35,0.56,0.8,42.41,23.34,5.69
-0.37,0.58,0.81,41.97,22.43,6.47
-0.39,0.6,0.82,40.65,20.9,7.21
-0.41,0.61,0.82,38.36,18.82,7.66
-0.42,0.61,0.81,35.2,16.23,7.54
-0.42,0.61,0.81,31.35,13.13,6.87
-0.42,0.61,0.81,31.35,13.13,6.87
-0.41,0.61,0.81,27.0,9.49,5.93
-0.4,0.61,0.8,22.37,5.29,4.94
-0.38,0.6,0.8,17.46,0.87,3.86
-0.36,0.6,0.79,12.46,-3.45,2.67
-0.33,0.58,0.78,7.65,-7.38,1.65
-0.33,0.58,0.78,7.65,-7.38,1.65
-0.31,0.56,0.76,3.17,-10.82,0.94
-0.3,0.54,0.74,-0.74,-13.64,0.49
-0.29,0.52,0.73,-3.9,-15.73,0.2
-0.27,0.49,0.72,-6.16,-17.14,0.04
-0.25,0.46,0.71,-7.43,-17.87,-0.01
-0.25,0.46,0.71,-7.43,-17.87,-0.01
-0.24,0.43,0.7,-7.64,-17.77,-0.08
-0.23,0.41,0.69,-6.53,-16.74,-0.21
-0.23,0.41,0.69,-3.86,-14.73,-0.28
-0.24,0.42,0.69,0.35,-11.81,-0.22
-0.26,0.45,0.71,5.68,-8.3,-0.08
-0.26,0.45,0.71,5.68,-8.3,-0.08
-0.29,0.49,0.72,11.46,-4.67,0.06
-0.31,0.53,0.73,16.94,-1.35,0.11
-0.31,0.56,0.73,21.57,1.41,0.13
-0.31,0.59,0.74,25.09,3.48,0.17
-0.32,0.6,0.75,27.52,4.79,0.32
-0.32,0.6,0.75,27.52,4.79,0.32
-0.31,0.61,0.75,28.93,5.61,0.49
-0.32,0.61,0.75,29.44,6.16,0.58
-0.32,0.61,0.75,29.19,6.51,0.65
-0.33,0.61,0.75,28.26,6.68,0.64
-0.32,0.6,0.74,26.74,6.69,0.48
-0.32,0.6,0.74,26.74,6.69,0.48
-0.29,0.55,0.73,25.01,6.35,0.43
-0.28,0.5,0.7,23.43,5.89,0.65
-0.26,0.45,0.67,22.64,6.15,0.58
-0.25,0.41,0.65,23.49,7.49,0.3
-0.24,0.4,0.64,26.41,9.84,0.2
-0.24,0.4,0.64,26.41,9.84,0.2
-0.25,0.42,0.64,31.44,12.99,0.41
-0.27,0.47,0.65,38.13,16.74,0.86
-0.29,0.53,0.68,45.49,20.72,1.44
-0.32,0.59,0.7,52.36,24.51,2.13
-0.34,0.64,0.71,58.09,27.76,2.86
-0.34,0.64,0.71,58.09,27.76,2.86
-0.36,0.68,0.72,62.35,30.27,3.58
-0.38,0.72,0.73,64.89,31.96,4.33
-0.4,0.75,0.75,65.64,32.8,5.03
-0.41,0.78,0.76,64.51,32.8,5.51
-0.42,0.8,0.76,61.53,31.98,5.71
-0.42,0.8,0.76,61.53,31.98,5.71
-0.44,0.8,0.77,56.82,30.43,5.54
-0.45,0.8,0.78,50.51,28.17,5.01
-0.45,0.79,0.77,42.84,25.22,4.14
-0.43,0.78,0.77,34.12,21.57,3.04
-0.41,0.75,0.75,24.65,17.4,1.84
-0.41,0.75,0.75,24.65,17.4,1.84
-0.39,0.71,0.74,14.81,12.94,0.62
-0.37,0.66,0.72,5.24,8.52,-0.56
-0.35,0.62,0.71,-3.32,4.58,-1.72
-0.33,0.58,0.7,-10.41,1.4,-2.79
-0.32,0.55,0.7,-15.82,-1.15,-3.61
-0.32,0.55,0.7,-15.82,-1.15,-3.61
-0.31,0.53,0.69,-19.57,-3.12,-4.14
-0.31,0.51,0.68,-21.79,-4.33,-4.66
-0.31,0.49,0.68,-22.5,-4.9,-5.21
-0.31,0.5,0.68,-21.82,-4.92,-5.65
-0.32,0.52,0.69,-19.95,-4.53,-5.96
-0.32,0.52,0.69,-19.95,-4.53,-5.96
-0.33,0.55,0.71,-17.28,-3.84,-6.27
-0.34,0.58,0.73,-14.52,-2.99,-6.73
-0.36,0.61,0.73,-12.38,-2.15,-7.36
-0.36,0.63,0.73,-11.27,-1.55,-8.11
-0.37,0.64,0.74,-11.28,-1.36,-8.91
-0.37,0.64,0.74,-11.28,-1.36,-8.91
-0.37,0.64,0.74,-12.36,-1.53,-9.77
-0.36,0.63,0.74,-14.27,-1.94,-10.64
-0.36,0.62,0.73,-16.71,-2.48,-11.41
-0.36,0.6,0.72,-19.33,-3.1,-12.03
-0.35,0.59,0.72,-21.85,-3.75,-12.46
-0.35,0.59,0.72,-21.85,-3.75,-12.46
-0.36,0.58,0.72,-24.09,-4.39,-12.69
-0.36,0.57,0.72,-25.86,-5.07,-12.78
-0.35,0.56,0.71,-27.08,-5.77,-12.74
-0.34,0.56,0.72,-27.73,-6.43,-12.55
-0.33,0.56,0.72,-27.93,-6.97,-12.2
-0.33,0.56,0.72,-27.93,-6.97,-12.2
-0.33,0.56,0.72,-27.82,-7.3,-11.66
-0.33,0.56,0.72,-27.55,-7.38,-11.05
-0.33,0.56,0.73,-27.18,-7.24,-10.42
-0.33,0.56,0.73,-26.78,-6.96,-9.81
-0.33,0.55,0.74,-26.42,-6.62,-9.22
-0.33,0.55,0.74,-26.42,-6.62,-9.22
-0.33,0.55,0.74,-26.15,-6.31,-8.71
-0.34,0.53,0.74,-25.88,-5.79,-8.39
-0.34,0.53,0.73,-25.34,-5.02,-8.32
-0.34,0.53,0.73,-24.36,-4.02,-8.37
-0.35,0.54,0.74,-23.06,-2.84,-8.55
-0.35,0.54,0.74,-23.06,-2.84,-8.55
-0.35,0.56,0.75,-21.69,-1.51,-8.87
-0.36,0.58,0.77,-20.6,-0.22,-9.35
-0.37,0.59,0.77,-20.08,0.88,-9.92
-0.37,0.61,0.78,-20.32,1.71,-10.55
-0.37,0.61,0.8,-21.4,2.23,-11.22
-0.37,0.61,0.8,-21.4,2.23,-11.22
-0.37,0.6,0.8,-23.36,2.57,-11.87
-0.37,0.59,0.8,-26.14,2.62,-12.45
-0.38,0.58,0.8,-29.48,2.54,-12.91
-0.37,0.56,0.79,-32.99,2.46,-13.37
-0.37,0.54,0.79,-36.43,2.45,-13.89
-0.37,0.54,0.79,-36.43,2.45,-13.89
-0.37,0.52,0.78,-39.72,2.55,-14.44
-0.36,0.5,0.78,-42.68,2.77,-14.99
-0.36,0.49,0.77,-45.17,3.1,-15.61
-0.36,0.47,0.76,-47.09,3.73,-16.38
-0.36,0.46,0.75,-48.38,4.74,-17.33
-0.36,0.46,0.75,-48.38,4.74,-17.33
-0.36,0.45,0.75,-49.08,6.12,-18.46
-0.35,0.46,0.75,-49.34,7.81,-19.72
-0.34,0.46,0.75,-49.44,9.75,-21.03
-0.33,0.46,0.76,-49.59,12.0,-22.25
-0.33,0.45,0.76,-49.76,14.65,-23.25
-0.33,0.45,0.76,-49.76,14.65,-23.25
-0.33,0.45,0.76,-49.89,17.61,-23.94
-0.34,0.44,0.75,-49.94,20.8,-24.4
-0.35,0.43,0.75,-49.88,24.07,-24.62
-0.36,0.42,0.74,-49.65,27.32,-24.67
-0.38,0.42,0.73,-49.24,30.36,-24.57
-0.38,0.42,0.73,-49.24,30.36,-24.57
-0.39,0.41,0.74,-48.67,33.01,-24.4
-0.4,0.41,0.74,-48.04,35.16,-24.13
-0.41,0.41,0.74,-47.36,36.86,-23.73
-0.42,0.41,0.74,-46.65,38.14,-23.35
-0.43,0.41,0.74,-46.0,38.98,-22.98
-0.43,0.41,0.74,-46.0,38.98,-22.98
-0.43,0.4,0.75,-45.54,39.43,-22.66
-0.43,0.4,0.75,-45.32,39.59,-22.46
-0.43,0.39,0.75,-45.44,39.62,-22.43
-0.43,0.38,0.76,-45.83,39.64,-22.56
-0.43,0.37,0.75,-46.38,39.76,-22.93
-0.43,0.37,0.75,-46.38,39.76,-22.93
-0.43,0.36,0.75,-47.03,40.18,-23.52
-0.43,0.35,0.75,-47.76,40.83,-24.42
-0.43,0.35,0.74,-48.66,41.76,-25.57
-0.43,0.35,0.74,-49.65,43.0,-26.91
-0.43,0.34,0.74,-50.67,44.52,-28.28
-0.43,0.34,0.74,-50.67,44.52,-28.28
-0.43,0.32,0.75,-51.65,46.28,-29.47
-0.43,0.31,0.74,-52.53,48.21,-30.38
-0.44,0.29,0.74,-53.21,50.18,-30.95
-0.46,0.28,0.74,-53.53,51.98,-31.12
-0.48,0.27,0.73,-53.41,53.59,-30.99
-0.48,0.27,0.73,-53.41,53.59,-30.99
-0.49,0.26,0.73,-52.73,54.91,-30.6
-0.51,0.25,0.73,-51.43,55.85,-30.01
-0.52,0.25,0.73,-49.6,56.39,-29.19
-0.52,0.26,0.74,-47.37,56.52,-28.22
-0.53,0.26,0.75,-44.88,56.29,-27.12
-0.53,0.26,0.75,-44.88,56.29,-27.12
-0.54,0.26,0.75,-42.27,55.69,-25.87
-0.56,0.27,0.76,-39.62,54.69,-24.54
-0.57,0.27,0.76,-36.97,53.24,-23.1
-0.58,0.28,0.77,-34.47,51.44,-21.65
-0.59,0.28,0.76,-32.22,49.34,-20.3
-0.59,0.28,0.76,-32.22,49.34,-20.3
-0.59,0.28,0.76,-30.23,46.92,-19.1
-0.59,0.28,0.76,-28.41,44.34,-18.08
-0.59,0.28,0.77,-26.72,41.75,-17.2
-0.59,0.28,0.77,-25.23,39.17,-16.47
-0.58,0.28,0.77,-24.04,36.66,-15.85
-0.58,0.28,0.77,-24.04,36.66,-15.85
-0.58,0.28,0.76,-23.15,34.31,-15.31
-0.57,0.28,0.77,-22.59,32.14,-14.88
-0.57,0.27,0.77,-22.3,30.2,-14.52
-0.56,0.26,0.76,-22.18,28.46,-14.23
-0.57,0.25,0.76,-22.18,26.86,-13.99
-0.57,0.25,0.76,-22.18,26.86,-13.99
-0.57,0.25,0.76,-22.24,25.43,-13.8
-0.57,0.25,0.77,-22.31,24.13,-13.64
-0.57,0.24,0.76,-22.42,22.89,-13.55
-0.58,0.24,0.76,-22.51,21.69,-13.51
-0.58,0.23,0.76,-22.57,20.54,-13.55
-0.58,0.23,0.76,-22.57,20.54,-13.55
-0.59,0.23,0.76,-22.54,19.4,-13.72
-0.59,0.22,0.75,-22.43,18.25,-13.96
-0.58,0.22,0.75,-22.24,17.09,-14.25
-0.58,0.22,0.75,-21.99,16.03,-14.55
-0.58,0.21,0.74,-21.66,15.23,-14.87
-0.58,0.21,0.74,-21.66,15.23,-14.87
-0.58,0.22,0.73,-21.2,14.69,-15.27
-0.58,0.22,0.73,-20.59,14.47,-15.78
