ax,ay,az,gx,gy,gz
-0.66,-0.1,0.75,-8.2,20.02,-0.74
-0.67,-0.11,0.75,-8.1,19.5,0.04
-0.67,-0.11,0.75,-7.79,18.89,0.77
-0.69,-0.11,0.76,-7.28,18.31,1.29
-0.71,-0.1,0.75,-6.65,17.89,1.52
-0.73,-0.09,0.75,-5.94,17.54,1.42
-0.73,-0.09,0.75,-5.94,17.54,1.42
-0.74,-0.08,0.76,-5.21,17.15,1.01
-0.74,-0.06,0.77,-4.68,16.7,0.39
-0.75,-0.05,0.79,-4.56,16.22,-0.38
-0.76,-0.05,0.79,-5.01,15.62,-1.18
-0.77,-0.05,0.79,-5.97,14.84,-1.95
-0.77,-0.05,0.79,-5.97,14.84,-1.95
-0.77,-0.06,0.78,-7.18,13.81,-2.59
-0.78,-0.07,0.78,-8.41,12.49,-3.05
-0.77,-0.08,0.77,-9.53,10.82,-3.37
-0.76,-0.09,0.76,-10.42,8.88,-3.49
-0.76,-0.1,0.75,-10.96,6.77,-3.39
-0.76,-0.1,0.75,-10.96,6.77,-3.39
-0.75,-0.1,0.75,-11.13,4.59,-3.05
-0.74,-0.1,0.74,-11.0,2.42,-2.6
-0.73,-0.11,0.73,-10.71,0.37,-2.09
-0.72,-0.11,0.72,-10.29,-1.4,-1.54
-0.71,-0.11,0.71,-9.7,-2.78,-0.98
-0.71,-0.11,0.71,-9.7,-2.78,-0.98
-0.71,-0.12,0.71,-8.93,-3.75,-0.42
-0.7,-0.12,0.72,-8.05,-4.28,0.04
-0.7,-0.12,0.72,-7.15,-4.41,0.42
-0.7,-0.11,0.72,-6.29,-4.18,0.67
-0.7,-0.11,0.71,-5.46,-3.67,0.7
-0.7,-0.11,0.71,-5.46,-3.67,0.7
-0.71,-0.1,0.71,-4.65,-3.03,0.52
-0.71,-0.09,0.71,-3.87,-2.37,0.17
-0.72,-0.08,0.71,-3.24,-1.79,-0.29
-0.72,-0.07,0.71,-2.77,-1.35,-0.83
-0.72,-0.07,0.71,-2.56,-1.12,-1.4
-0.72,-0.07,0.71,-2.56,-1.12,-1.4
-0.73,-0.06,0.71,-2.67,-1.12,-1.9
-0.73,-0.06,0.71,-3.02,-1.34,-2.41
-0.74,-0.06,0.71,-3.53,-1.81,-2.95
-0.75,-0.06,0.71,-4.17,-2.52,-3.5
-0.75,-0.07,0.71,-4.92,-3.43,-4.07
-0.75,-0.07,0.71,-4.92,-3.43,-4.07
-0.75,-0.07,0.71,-5.76,-4.56,-4.66
-0.74,-0.07,0.72,-6.67,-5.85,-5.27
-0.73,-0.08,0.71,-7.65,-7.21,-5.87
-0.73,-0.09,0.71,-8.67,-8.54,-6.45
-0.71,-0.1,0.71,-9.68,-9.72,-7.06
-0.71,-0.1,0.71,-9.68,-9.72,-7.06
-0.7,-0.1,0.7,-10.65,-10.68,-7.68
-0.69,-0.11,0.69,-11.51,-11.31,-8.33
-0.68,-0.12,0.68,-12.19,-11.59,-9.02
-0.67,-0.13,0.69,-12.67,-11.52,-9.62
-0.66,-0.13,0.69,-12.91,-11.07,-10.04
-0.66,-0.13,0.69,-12.91,-11.07,-10.04
-0.66,-0.14,0.69,-12.93,-10.25,-10.29
-0.65,-0.14,0.69,-12.71,-9.19,-10.32
-0.65,-0.15,0.69,-12.27,-8.03,-10.1
-0.64,-0.15,0.69,-11.56,-6.82,-9.62
-0.64,-0.15,0.68,-10.52,-5.64,-8.86
-0.64,-0.15,0.68,-10.52,-5.64,-8.86
-0.64,-0.15,0.68,-9.17,-4.45,-7.88
-0.64,-0.15,0.68,-7.53,-3.2,-6.73
-0.64,-0.15,0.67,-5.69,-1.84,-5.5
-0.65,-0.14,0.68,-3.72,-0.39,-4.24
-0.65,-0.14,0.68,-1.7,1.15,-3.05
-0.65,-0.14,0.68,-1.7,1.15,-3.05
-0.67,-0.13,0.69,0.23,2.7,-1.93
-0.68,-0.12,0.7,1.96,4.2,-0.96
-0.69,-0.1,0.71,3.39,5.53,-0.13
-0.7,-0.1,0.71,4.45,6.68,0.54
-0.7,-0.1,0.71,5.19,7.62,0.98
-0.7,-0.1,0.71,5.19,7.62,0.98
-0.71,-0.09,0.72,5.64,8.35,1.26
-0.71,-0.09,0.72,5.86,8.86,1.45
-0.72,-0.09,0.73,5.84,9.14,1.52
-0.72,-0.09,0.73,5.56,9.22,1.47
-0.72,-0.09,0.73,5.02,9.13,1.32
-0.72,-0.09,0.73,5.02,9.13,1.32
-0.72,-0.09,0.73,4.29,8.91,1.09
-0.73,-0.1,0.72,3.49,8.57,0.8
-0.73,-0.1,0.72,2.72,8.06,0.46
-0.73,-0.11,0.72,2.03,7.4,0.07
-0.73,-0.11,0.72,1.38,6.62,-0.33
-0.73,-0.11,0.72,1.38,6.62,-0.33
-0.72,-0.11,0.71,0.81,5.73,-0.75
-0.71,-0.11,0.71,0.33,4.79,-1.12
-0.71,-0.11,0.71,0.03,3.8,-1.38
-0.7,-0.12,0.71,-0.16,2.83,-1.55
-0.71,-0.12,0.71,-0.25,1.86,-1.63
-0.71,-0.12,0.71,-0.25,1.86,-1.63
-0.71,-0.12,0.7,-0.22,0.99,-1.67
-0.71,-0.12,0.7,-0.11,0.21,-1.73
-0.71,-0.12,0.7,-0.0,-0.42,-1.86
-0.7,-0.12,0.7,0.07,-0.85,-2.02
-0.69,-0.12,0.7,0.08,-1.08,-2.2
-0.69,-0.12,0.7,0.08,-1.08,-2.2
-0.68,-0.12,0.7,-0.02,-1.03,-2.37
-0.67,-0.12,0.7,-0.23,-0.67,-2.51
-0.67,-0.12,0.69,-0.54,-0.17,-2.56
-0.67,-0.13,0.69,-0.78,0.4,-2.55
-0.67,-0.13,0.68,-0.87,1.0,-2.46
-0.67,-0.13,0.68,-0.87,1.0,-2.46
-0.68,-0.13,0.68,-0.78,1.49,-2.32
-0.69,-0.13,0.68,-0.46,1.83,-2.19
-0.69,-0.12,0.68,0.07,2.02,-2.06
-0.69,-0.12,0.69,0.64,2.06,-1.99
-0.69,-0.11,0.69,1.16,2.0,-1.96
-0.69,-0.11,0.69,1.16,2.0,-1.96
-0.68,-0.1,0.7,1.55,1.89,-1.9
-0.68,-0.1,0.71,1.73,1.74,-1.79
-0.68,-0.1,0.71,1.7,1.54,-1.62
-0.68,-0.1,0.71,1.46,1.33,-1.44
-0.69,-0.1,0.71,1.07,1.19,-1.27
-0.69,-0.1,0.71,1.07,1.19,-1.27
-0.69,-0.11,0.71,0.52,1.1,-1.19
-0.69,-0.12,0.71,-0.09,1.02,-1.18
-0.69,-0.12,0.7,-0.63,1.03,-1.22
-0.7,-0.13,0.71,-0.99,1.16,-1.34
-0.69,-0.13,0.7,-1.17,1.45,-1.57
-0.69,-0.13,0.7,-1.17,1.45,-1.57
-0.69,-0.13,0.7,-1.22,1.86,-1.83
-0.69,-0.13,0.71,-1.17,2.35,-2.06
-0.69,-0.13,0.71,-1.06,2.82,-2.22
-0.69,-0.13,0.71,-0.92,3.12,-2.28
-0.7,-0.13,0.71,-0.71,3.22,-2.26
-0.7,-0.13,0.71,-0.71,3.22,-2.26
-0.7,-0.12,0.71,-0.39,3.11,-2.22
-0.69,-0.11,0.71,-0.04,2.82,-2.19
-0.68,-0.11,0.71,0.27,2.41,-2.15
-0.68,-0.11,0.71,0.56,1.96,-2.02
-0.68,-0.11,0.72,0.76,1.59,-1.86
-0.68,-0.11,0.72,0.76,1.59,-1.86
-0.68,-0.11,0.72,0.87,1.43,-1.7
-0.68,-0.12,0.72,0.85,1.52,-1.6
-0.69,-0.12,0.72,0.78,1.88,-1.58
-0.7,-0.12,0.72,0.69,2.41,-1.64
-0.7,-0.11,0.73,0.58,3.02,-1.77
-0.7,-0.11,0.73,0.58,3.02,-1.77
-0.71,-0.11,0.73,0.46,3.57,-1.88
-0.71,-0.11,0.74,0.29,3.96,-2.01
-0.71,-0.11,0.73,0.11,4.15,-2.15
-0.71,-0.11,0.73,0.01,4.12,-2.25
-0.71,-0.11,0.73,0.07,3.83,-2.28
-0.71,-0.11,0.73,0.07,3.83,-2.28
-0.71,-0.1,0.73,0.22,3.34,-2.25
-0.71,-0.1,0.73,0.37,2.6,-2.16
-0.71,-0.1,0.73,0.48,1.65,-2.01
-0.71,-0.1,0.73,0.55,0.61,-1.81
-0.7,-0.1,0.73,0.64,-0.51,-1.54
-0.7,-0.1,0.73,0.64,-0.51,-1.54
-0.7,-0.11,0.73,0.75,-1.58,-1.25
-0.7,-0.11,0.73,0.84,-2.54,-0.98
-0.69,-0.11,0.72,0.91,-3.25,-0.75
-0.69,-0.11,0.72,0.93,-3.7,-0.58
-0.69,-0.11,0.72,0.99,-3.94,-0.5
-0.69,-0.11,0.71,0.99,-3.94,-0.5
-0.69,-0.11,0.71,1.1,-4.01,-0.51
-0.69,-0.1,0.71,1.18,-3.95,-0.57
-0.69,-0.1,0.71,1.24,-3.76,-0.64
-0.69,-0.09,0.71,1.2,-3.45,-0.77
-0.69,-0.09,0.71,0.99,-3.06,-0.93
-0.7,-0.09,0.71,0.99,-3.06,-0.93
-0.7,-0.08,0.71,0.56,-2.68,-1.12
-0.69,-0.08,0.71,-0.06,-2.3,-1.32
-0.69,-0.08,0.71,-0.81,-1.91,-1.5
-0.69,-0.08,0.71,-1.61,-1.49,-1.62
-0.69,-0.08,0.71,-1.61,-1.49,-1.62
-0.69,-0.09,0.7,-2.39,-1.14,-1.64
-0.69,-0.09,0.7,-3.1,-0.85,-1.53
-0.69,-0.1,0.7,-3.71,-0.64,-1.25
-0.69,-0.11,0.7,-4.15,-0.55,-0.83
-0.69,-0.11,0.7,-4.41,-0.61,-0.31
-0.69,-0.11,0.7,-4.41,-0.61,-0.31
-0.69,-0.12,0.69,-4.43,-0.82,0.26
-0.69,-0.12,0.7,-4.21,-1.07,0.84
-0.68,-0.12,0.7,-3.8,-1.35,1.41
-0.68,-0.12,0.7,-3.27,-1.57,1.91
-0.68,-0.12,0.71,-2.74,-1.67,2.28
-0.68,-0.12,0.71,-2.74,-1.67,2.28
-0.68,-0.11,0.71,-2.33,-1.65,2.49
-0.68,-0.11,0.71,-2.1,-1.54,2.6
-0.68,-0.11,0.72,-2.02,-1.39,2.65
-0.67,-0.11,0.72,-2.13,-1.22,2.68
-0.67,-0.12,0.72,-2.4,-1.04,2.71
-0.67,-0.12,0.72,-2.4,-1.04,2.71
-0.67,-0.13,0.71,-2.74,-0.85,2.71
-0.67,-0.14,0.71,-2.98,-0.64,2.67
-0.67,-0.14,0.7,-2.98,-0.41,2.62
-0.67,-0.14,0.71,-2.75,-0.2,2.58
-0.67,-0.14,0.71,-2.29,-0.07,2.57
-0.67,-0.14,0.71,-2.29,-0.07,2.57
-0.68,-0.14,0.71,-1.66,-0.09,2.58
-0.68,-0.14,0.71,-0.89,-0.28,2.63
-0.69,-0.13,0.72,0.01,-0.68,2.74
-0.69,-0.13,0.72,0.94,-1.28,2.89
-0.69,-0.12,0.73,1.78,-2.03,3.06
-0.69,-0.12,0.73,1.78,-2.03,3.06
-0.7,-0.12,0.74,2.46,-2.96,3.27
-0.72,-0.12,0.74,3.04,-4.15,3.51
-0.74,-0.12,0.74,3.54,-5.67,3.67
-0.75,-0.11,0.75,3.91,-7.63,3.64
-0.75,-0.11,0.75,4.14,-9.98,3.25
-0.75,-0.11,0.75,4.14,-9.98,3.25
-0.75,-0.11,0.75,4.28,-12.67,2.56
-0.74,-0.11,0.75,4.4,-15.48,1.63
-0.72,-0.1,0.76,4.37,-18.22,0.56
-0.71,-0.1,0.76,4.03,-20.84,-0.51
-0.7,-0.09,0.77,3.31,-23.23,-1.54
-0.7,-0.09,0.77,3.31,-23.23,-1.54
-0.69,-0.1,0.76,2.18,-25.21,-2.57
-0.69,-0.11,0.75,0.85,-26.72,-3.54
-0.67,-0.12,0.74,-0.49,-27.88,-4.35
-0.65,-0.13,0.74,-1.73,-28.66,-4.95
-0.63,-0.14,0.73,-2.7,-29.0,-5.24
-0.63,-0.14,0.73,-2.7,-29.0,-5.24
-0.62,-0.15,0.73,-3.34,-28.93,-5.25
-0.62,-0.15,0.72,-3.6,-28.57,-4.99
-0.62,-0.16,0.72,-3.38,-28.03,-4.5
-0.62,-0.16,0.71,-2.6,-27.35,-3.83
-0.63,-0.15,0.72,-1.37,-26.61,-3.08
-0.63,-0.15,0.72,-1.37,-26.61,-3.08
-0.63,-0.14,0.72,0.12,-25.83,-2.37
-0.63,-0.13,0.73,1.67,-24.98,-1.8
-0.63,-0.12,0.73,3.18,-24.0,-1.41
-0.63,-0.11,0.74,4.65,-22.77,-1.16
-0.63,-0.1,0.75,5.99,-21.32,-0.99
-0.63,-0.1,0.75,5.99,-21.32,-0.99
-0.63,-0.09,0.76,6.99,-19.79,-0.88
-0.63,-0.07,0.77,7.51,-18.19,-0.81
-0.64,-0.06,0.77,7.56,-16.64,-0.84
-0.66,-0.06,0.78,7.19,-15.33,-0.97
-0.67,-0.05,0.78,6.48,-14.53,-1.2
-0.67,-0.05,0.78,6.48,-14.53,-1.2
-0.68,-0.04,0.79,5.51,-14.39,-1.58
-0.69,-0.03,0.81,4.22,-15.07,-2.04
-0.7,-0.02,0.83,2.52,-16.62,-2.52
-0.71,-0.02,0.83,0.38,-19.1,-3.06
-0.7,-0.02,0.83,-2.19,-22.43,-3.67
-0.7,-0.02,0.83,-2.19,-22.43,-3.67
-0.7,-0.03,0.83,-5.01,-26.54,-4.28
-0.69,-0.05,0.83,-7.93,-31.3,-4.84
-0.68,-0.06,0.83,-10.74,-36.58,-5.31
-0.68,-0.07,0.83,-13.35,-42.26,-5.76
-0.67,-0.08,0.83,-15.7,-48.21,-6.25
-0.67,-0.08,0.83,-15.7,-48.21,-6.25
-0.67,-0.09,0.83,-17.82,-54.28,-6.84
-0.66,-0.09,0.83,-19.75,-60.38,-7.59
-0.66,-0.09,0.84,-21.55,-66.42,-8.69
-0.66,-0.08,0.86,-23.34,-72.29,-10.25
-0.65,-0.08,0.86,-25.32,-77.97,-12.27
-0.65,-0.08,0.86,-25.32,-77.97,-12.27
-0.63,-0.07,0.88,-27.68,-83.48,-14.58
-0.6,-0.06,0.89,-30.67,-88.95,-16.97
-0.57,-0.07,0.91,-34.46,-94.34,-19.27
-0.55,-0.08,0.92,-39.09,-99.67,-21.26
-0.54,-0.1,0.91,-44.45,-104.98,-22.84
-0.54,-0.1,0.91,-44.45,-104.98,-22.84
-0.53,-0.13,0.9,-50.3,-110.38,-24.07
-0.52,-0.17,0.88,-56.27,-116.07,-25.0
-0.5,-0.21,0.87,-61.75,-122.2,-25.49
-0.49,-0.25,0.86,-66.32,-128.69,-25.52
-0.47,-0.28,0.85,-69.79,-135.41,-25.16
-0.47,-0.28,0.85,-69.79,-135.41,-25.16
-0.46,-0.31,0.82,-71.98,-142.11,-24.51
-0.42,-0.33,0.81,-72.63,-148.69,-23.74
-0.37,-0.34,0.81,-71.92,-154.47,-23.1
-0.32,-0.34,0.83,-70.28,-158.62,-22.81
-0.28,-0.34,0.84,-68.12,-160.75,-22.9
-0.28,-0.34,0.84,-68.12,-160.75,-22.9
-0.23,-0.35,0.84,-65.68,-160.95,-23.27
-0.2,-0.36,0.83,-63.13,-159.44,-23.88
-0.17,-0.37,0.83,-60.37,-156.48,-24.69
-0.15,-0.38,0.82,-57.23,-152.23,-25.48
-0.14,-0.39,0.81,-53.64,-147.08,-26.0
-0.14,-0.39,0.81,-53.64,-147.08,-26.0
-0.14,-0.4,0.81,-49.53,-141.65,-26.13
-0.15,-0.4,0.81,-44.95,-136.39,-25.83
-0.17,-0.4,0.82,-39.86,-131.76,-25.24
-0.2,-0.39,0.82,-34.46,-128.11,-24.55
-0.24,-0.37,0.84,-28.87,-125.81,-23.98
-0.24,-0.37,0.84,-28.87,-125.81,-23.98
-0.27,-0.35,0.84,-23.33,-125.01,-23.73
-0.27,-0.32,0.85,-18.01,-125.75,-23.85
-0.26,-0.28,0.87,-13.07,-127.89,-24.13
-0.22,-0.25,0.89,-8.76,-130.83,-24.47
-0.16,-0.21,0.92,-5.38,-133.98,-24.64
-0.16,-0.21,0.92,-5.38,-133.98,-24.64
-0.11,-0.17,0.97,-3.34,-136.53,-24.62
-0.08,-0.15,1.0,-3.21,-137.71,-24.64
-0.06,-0.14,0.99,-5.15,-137.6,-24.76
-0.06,-0.15,1.0,-8.85,-136.64,-24.94
-0.07,-0.17,0.99,-14.12,-135.0,-25.16
-0.07,-0.17,0.99,-14.12,-135.0,-25.16
-0.1,-0.21,0.97,-20.43,-133.21,-25.36
-0.13,-0.25,0.93,-27.06,-131.85,-25.52
-0.16,-0.28,0.9,-33.1,-131.38,-25.73
-0.17,-0.32,0.88,-37.74,-131.95,-26.13
-0.16,-0.33,0.87,-40.77,-133.58,-26.77
-0.16,-0.33,0.87,-40.77,-133.58,-26.77
-0.13,-0.35,0.87,-42.38,-136.08,-27.45
-0.09,-0.35,0.88,-42.8,-139.34,-27.83
-0.05,-0.34,0.87,-42.34,-143.15,-27.68
-0.01,-0.33,0.87,-41.22,-147.3,-27.01
0.03,-0.32,0.87,-39.59,-151.3,-25.89
0.03,-0.32,0.87,-39.59,-151.3,-25.89
0.08,-0.3,0.87,-37.63,-154.84,-24.4
0.13,-0.28,0.88,-35.61,-157.6,-22.51
0.18,-0.27,0.89,-33.94,-159.31,-20.4
0.22,-0.27,0.92,-33.01,-159.81,-18.21
0.25,-0.28,0.94,-33.02,-159.08,-16.01
0.25,-0.28,0.94,-33.02,-159.08,-16.01
0.24,-0.31,0.93,-34.02,-157.22,-14.07
0.24,-0.34,0.92,-35.78,-154.5,-12.56
0.23,-0.37,0.88,-37.67,-151.13,-11.61
0.23,-0.41,0.86,-38.9,-147.21,-11.28
0.26,-0.43,0.84,-39.27,-143.16,-11.31
0.26,-0.43,0.84,-39.27,-143.16,-11.31
0.27,-0.44,0.83,-38.6,-139.26,-11.2
0.29,-0.44,0.82,-36.94,-135.71,-10.65
0.31,-0.43,0.82,-34.59,-132.61,-9.65
0.33,-0.41,0.82,-31.76,-129.81,-8.15
0.34,-0.38,0.82,-28.64,-127.13,-6.31
0.34,-0.38,0.82,-28.64,-127.13,-6.31
0.36,-0.36,0.83,-25.47,-124.3,-4.3
0.37,-0.34,0.83,-22.57,-121.22,-2.26
0.4,-0.33,0.84,-20.27,-117.66,-0.48
0.44,-0.33,0.83,-18.7,-113.6,0.88
0.46,-0.35,0.82,-17.94,-109.0,1.98
0.46,-0.35,0.82,-17.94,-109.0,1.98
0.48,-0.37,0.81,-17.86,-103.89,3.19
0.48,-0.39,0.8,-18.29,-98.32,4.61
0.48,-0.41,0.78,-18.99,-92.29,6.04
0.47,-0.44,0.76,-19.56,-85.89,7.44
0.45,-0.47,0.73,-19.55,-79.41,8.76
0.45,-0.47,0.73,-19.55,-79.41,8.76
0.43,-0.5,0.72,-18.6,-73.21,10.19
0.4,-0.5,0.72,-16.5,-67.44,11.65
0.37,-0.49,0.73,-13.43,-62.03,12.82
0.36,-0.46,0.76,-9.69,-57.13,13.58
0.36,-0.42,0.78,-5.75,-52.75,13.94
0.36,-0.42,0.78,-5.75,-52.75,13.94
0.35,-0.39,0.81,-2.14,-49.05,14.06
0.34,-0.37,0.83,0.66,-46.12,14.08
0.32,-0.35,0.85,2.38,-44.13,14.07
0.31,-0.35,0.86,2.82,-43.08,14.03
0.32,-0.35,0.88,2.1,-42.89,13.87
0.32,-0.35,0.88,2.1,-42.89,13.87
0.35,-0.35,0.88,0.28,-43.15,13.52
0.39,-0.37,0.86,-2.53,-43.53,12.78
0.44,-0.4,0.84,-5.91,-43.62,11.77
0.48,-0.43,0.81,-9.15,-42.99,10.69
0.5,-0.47,0.78,-11.75,-41.29,9.59
0.5,-0.47,0.78,-11.75,-41.29,9.59
0.49,-0.49,0.77,-13.38,-38.76,8.71
0.47,-0.51,0.76,-13.88,-35.77,8.08
0.44,-0.51,0.77,-13.34,-32.69,7.69
0.4,-0.49,0.78,-11.85,-29.93,7.52
0.36,-0.47,0.79,-9.77,-27.78,7.21
0.36,-0.47,0.79,-9.77,-27.78,7.21
0.36,-0.45,0.81,-7.54,-26.46,6.73
0.37,-0.43,0.82,-5.52,-25.96,6.27
0.38,-0.41,0.82,-3.84,-26.11,5.92
0.4,-0.4,0.83,-2.42,-26.75,5.7
0.4,-0.4,0.84,-1.28,-27.69,5.57
0.4,-0.4,0.84,-1.28,-27.69,5.57
0.4,-0.39,0.85,-0.6,-28.77,5.39
0.41,-0.39,0.84,-0.44,-29.94,5.13
0.44,-0.38,0.84,-0.7,-31.22,4.79
0.46,-0.38,0.84,-1.36,-32.34,4.42
0.46,-0.39,0.82,-2.37,-33.02,4.16
0.46,-0.39,0.82,-2.37,-33.02,4.16
0.47,-0.41,0.81,-3.61,-33.34,4.02
0.47,-0.43,0.78,-4.69,-33.2,3.97
0.47,-0.44,0.77,-5.28,-32.63,3.98
0.47,-0.45,0.76,-5.17,-31.86,4.03
0.47,-0.45,0.76,-4.39,-30.9,4.0
0.47,-0.45,0.76,-4.39,-30.9,4.0
0.48,-0.44,0.75,-3.11,-29.69,3.84
0.48,-0.43,0.76,-1.54,-28.3,3.68
0.47,-0.41,0.76,0.09,-26.91,3.6
0.45,-0.4,0.77,1.59,-25.68,3.61
0.44,-0.39,0.77,2.82,-24.75,3.72
0.44,-0.39,0.77,2.82,-24.75,3.72
0.43,-0.38,0.77,3.81,-24.23,3.91
0.41,-0.37,0.78,4.61,-24.2,4.23
0.41,-0.36,0.78,5.09,-24.66,4.47
0.45,-0.36,0.79,5.02,-25.47,4.57
0.48,-0.37,0.79,4.22,-26.23,4.56
0.48,-0.37,0.79,4.22,-26.23,4.56
0.5,-0.38,0.76,2.9,-26.66,4.54
0.52,-0.41,0.73,1.46,-26.55,4.61
0.54,-0.42,0.72,0.26,-25.72,4.8
0.56,-0.44,0.72,-0.67,-24.08,4.98
0.56,-0.44,0.71,-1.27,-21.6,5.03
0.56,-0.44,0.71,-1.27,-21.6,5.03
0.54,-0.44,0.72,-1.46,-18.31,4.82
0.51,-0.44,0.72,-1.35,-14.66,4.27
0.49,-0.45,0.71,-1.04,-11.08,3.55
0.48,-0.44,0.72,-0.47,-7.85,2.84
0.46,-0.44,0.72,0.43,-5.1,2.34
0.46,-0.44,0.72,0.43,-5.1,2.34
0.44,-0.43,0.73,1.52,-2.96,2.16
0.43,-0.41,0.75,2.58,-1.42,2.1
0.4,-0.39,0.76,3.42,-0.53,2.05
0.39,-0.39,0.76,3.83,-0.42,1.96
0.4,-0.4,0.77,3.78,-1.07,1.82
0.4,-0.4,0.77,3.78,-1.07,1.82
0.44,-0.41,0.76,3.42,-2.32,1.76
0.46,-0.42,0.76,2.98,-3.81,1.93
0.48,-0.43,0.75,2.65,-5.16,2.32
0.48,-0.42,0.75,2.55,-6.23,2.75
0.49,-0.41,0.76,2.61,-6.88,3.08
0.49,-0.41,0.76,2.61,-6.88,3.08
0.48,-0.41,0.75,2.58,-7.15,3.26
0.49,-0.41,0.75,2.3,-7.08,3.22
0.51,-0.41,0.75,1.92,-6.62,2.96
0.51,-0.42,0.74,1.6,-5.69,2.58
0.5,-0.42,0.74,1.46,-4.35,2.19
0.5,-0.42,0.74,1.46,-4.35,2.19
0.48,-0.42,0.74,1.49,-2.83,1.73
0.48,-0.42,0.73,1.62,-1.33,1.19
0.49,-0.42,0.74,1.87,0.17,0.61
0.47,-0.43,0.74,2.32,1.6,0.07
0.44,-0.42,0.74,3.02,2.79,-0.29
0.44,-0.42,0.74,3.02,2.79,-0.29
0.41,-0.42,0.75,3.91,3.37,-0.54
0.4,-0.4,0.76,4.7,3.14,-0.75
0.41,-0.39,0.77,5.16,2.23,-0.87
0.44,-0.39,0.77,5.32,0.86,-0.91
0.46,-0.39,0.77,5.3,-0.73,-0.75
0.46,-0.39,0.77,5.3,-0.73,-0.75
0.48,-0.39,0.77,5.16,-2.24,-0.38
0.49,-0.38,0.76,4.93,-3.41,0.13
0.49,-0.38,0.76,4.54,-4.15,0.7
0.48,-0.39,0.76,3.97,-4.55,1.19
0.48,-0.4,0.76,3.34,-4.66,1.59
0.48,-0.4,0.76,3.34,-4.66,1.59
0.46,-0.41,0.76,2.78,-4.6,1.93
0.44,-0.41,0.77,2.28,-4.65,2.15
0.45,-0.41,0.77,1.73,-4.9,2.07
0.48,-0.41,0.77,1.17,-5.16,1.69
0.51,-0.42,0.76,0.65,-5.12,1.15
0.51,-0.42,0.76,0.65,-5.12,1.15
0.52,-0.43,0.75,0.3,-4.67,0.55
0.52,-0.44,0.73,0.26,-3.77,0.0
0.51,-0.44,0.72,0.69,-2.51,-0.45
0.5,-0.44,0.73,1.5,-1.11,-0.76
0.46,-0.43,0.75,2.57,0.15,-0.87
0.46,-0.43,0.75,2.57,0.15,-0.87
0.43,-0.41,0.76,3.61,0.87,-0.79
0.42,-0.39,0.78,4.28,0.84,-0.72
0.44,-0.39,0.79,4.32,0.15,-0.8
0.46,-0.39,0.78,3.74,-0.93,-0.9
0.46,-0.4,0.78,2.84,-2.12,-0.86
0.46,-0.4,0.78,2.84,-2.12,-0.86
0.47,-0.41,0.76,1.81,-3.33,-0.74
0.48,-0.43,0.75,0.94,-4.41,-0.72
0.48,-0.44,0.74,0.49,-5.26,-0.8
0.49,-0.44,0.74,0.49,-5.84,-0.92
0.49,-0.44,0.74,0.91,-6.15,-1.09
0.49,-0.44,0.73,0.91,-6.15,-1.09
0.5,-0.43,0.73,1.67,-6.16,-1.33
0.51,-0.43,0.73,2.67,-5.8,-1.62
0.52,-0.42,0.74,3.79,-5.05,-1.92
0.51,-0.4,0.75,4.88,-3.93,-2.14
0.51,-0.4,0.75,5.8,-2.69,-2.22
0.49,-0.38,0.76,5.8,-2.69,-2.22
0.46,-0.36,0.77,6.2,-1.65,-2.2
0.44,-0.36,0.78,5.84,-1.11,-2.12
0.44,-0.37,0.76,4.84,-1.09,-1.97
0.45,-0.39,0.76,3.65,-1.52,-1.66
0.45,-0.39,0.76,3.65,-1.52,-1.66
0.45,-0.39,0.75,2.6,-2.24,-1.21
0.46,-0.4,0.74,1.77,-3.13,-0.7
0.47,-0.41,0.74,1.22,-4.06,-0.19
0.47,-0.42,0.74,1.01,-4.86,0.34
0.48,-0.42,0.74,1.11,-5.55,0.8
0.48,-0.42,0.74,1.11,-5.55,0.8
0.48,-0.41,0.75,1.48,-6.05,1.1
0.49,-0.41,0.76,1.91,-6.31,1.26
0.49,-0.4,0.77,2.21,-6.43,1.27
0.5,-0.4,0.76,2.36,-6.39,1.13
0.5,-0.4,0.76,2.5,-6.16,0.94
0.5,-0.4,0.76,2.5,-6.16,0.94
0.5,-0.39,0.77,2.67,-5.73,0.78
0.5,-0.39,0.77,2.65,-5.17,0.66
0.48,-0.39,0.77,2.36,-4.55,0.56
0.46,-0.4,0.76,2.1,-4.02,0.55
0.44,-0.4,0.76,1.93,-3.83,0.58
0.44,-0.4,0.76,1.93,-3.83,0.58
0.44,-0.39,0.76,1.72,-4.17,0.55
0.47,-0.4,0.75,1.39,-4.82,0.46
0.5,-0.41,0.74,1.07,-5.43,0.4
0.52,-0.42,0.74,1.02,-5.7,0.37
0.52,-0.42,0.74,1.39,-5.51,0.41
0.52,-0.42,0.74,1.39,-5.51,0.41
0.5,-0.41,0.74,1.89,-4.99,0.46
0.49,-0.4,0.75,2.2,-4.37,0.42
0.49,-0.4,0.75,2.19,-3.78,0.29
