ax,ay,az,gx,gy,gz
-0.12,0.07,0.99,2.89,17.92,0.52
-0.12,0.07,0.98,2.73,19.57,0.64
-0.13,0.07,0.98,2.56,21.1,0.79
-0.13,0.07,0.97,2.44,22.6,0.97
-0.13,0.07,0.97,2.35,24.06,1.15
-0.13,0.07,0.97,2.35,24.06,1.15
-0.13,0.07,0.97,2.18,25.49,1.23
-0.13,0.07,0.97,1.75,27.01,1.12
-0.12,0.06,0.97,0.93,28.82,0.68
-0.11,0.05,0.96,-0.27,31.04,-0.16
-0.11,0.04,0.96,-1.73,33.81,-1.27
-0.11,0.04,0.96,-1.73,33.81,-1.27
-0.11,0.04,0.96,-3.37,37.16,-2.67
-0.12,0.04,0.96,-5.07,41.05,-4.36
-0.12,0.04,0.94,-6.84,45.52,-6.24
-0.12,0.05,0.93,-8.72,50.5,-8.23
-0.12,0.04,0.93,-10.76,55.91,-10.26
-0.12,0.04,0.93,-10.76,55.91,-10.26
-0.12,0.04,0.91,-12.98,61.72,-12.29
-0.13,0.03,0.89,-15.29,67.77,-14.19
-0.13,0.03,0.88,-17.51,73.98,-15.89
-0.15,0.02,0.87,-19.61,80.25,-17.43
-0.15,0.02,0.87,-21.51,86.35,-18.76
-0.16,0.01,0.86,-21.51,86.35,-18.76
-0.18,0.0,0.85,-23.01,91.76,-19.56
-0.21,0.0,0.85,-23.98,96.07,-19.48
-0.25,0.01,0.86,-24.46,98.81,-18.44
-0.29,0.02,0.86,-24.53,99.59,-16.53
-0.29,0.02,0.86,-24.46,98.42,-13.92
-0.33,0.01,0.86,-24.46,98.42,-13.92
-0.35,-0.01,0.86,-24.38,95.33,-10.96
-0.35,-0.04,0.86,-24.16,90.72,-8.04
-0.34,-0.08,0.87,-23.4,85.3,-5.35
-0.33,-0.1,0.87,-21.84,79.63,-3.02
-0.33,-0.1,0.87,-21.84,79.63,-3.02
-0.32,-0.1,0.87,-19.24,74.14,-1.15
-0.3,-0.1,0.87,-15.71,69.2,0.26
-0.29,-0.09,0.88,-11.59,65.14,1.22
-0.29,-0.08,0.89,-7.24,62.28,1.62
-0.28,-0.07,0.9,-2.98,60.63,1.56
-0.28,-0.07,0.9,-2.98,60.63,1.56
-0.28,-0.05,0.91,0.85,59.96,1.35
-0.3,-0.02,0.92,3.96,60.0,1.26
-0.33,-0.0,0.93,6.11,60.44,1.22
-0.35,0.01,0.93,7.27,61.03,1.07
-0.37,0.02,0.92,7.63,61.57,0.77
-0.37,0.02,0.92,7.63,61.57,0.77
-0.38,0.01,0.92,7.47,61.8,0.54
-0.4,0.02,0.92,7.13,61.44,0.68
-0.42,0.03,0.92,6.77,60.38,1.49
-0.46,0.03,0.93,6.34,58.55,2.72
-0.48,0.03,0.93,5.7,55.91,3.96
-0.48,0.03,0.93,5.7,55.91,3.96
-0.49,0.02,0.92,4.99,52.63,4.86
-0.49,0.02,0.92,4.47,48.95,5.48
-0.48,0.02,0.92,4.21,45.03,5.92
-0.47,0.03,0.92,4.13,41.22,6.12
-0.45,0.03,0.92,4.04,37.98,5.93
-0.45,0.03,0.92,4.04,37.98,5.93
-0.42,0.02,0.91,3.9,35.74,5.21
-0.4,0.02,0.89,3.89,34.54,4.22
-0.39,0.02,0.89,3.97,34.14,3.36
-0.39,0.03,0.9,4.05,34.34,2.84
-0.4,0.04,0.9,3.95,34.98,2.59
-0.4,0.04,0.9,3.95,34.98,2.59
-0.42,0.04,0.89,3.57,35.78,2.32
-0.43,0.03,0.89,2.98,36.69,1.92
-0.44,0.01,0.88,2.32,37.64,1.46
-0.44,0.01,0.87,1.79,38.55,1.03
-0.44,0.0,0.87,1.54,39.3,0.65
-0.44,0.0,0.87,1.54,39.3,0.65
-0.45,0.02,0.88,1.73,39.62,0.49
-0.47,0.04,0.89,2.3,39.16,0.88
-0.5,0.06,0.9,2.97,37.6,1.96
-0.54,0.07,0.9,3.35,34.64,3.54
-0.56,0.06,0.89,3.27,30.19,5.28
-0.56,0.06,0.89,3.27,30.19,5.28
-0.57,0.03,0.89,3.02,24.41,6.84
-0.57,0.02,0.88,3.15,17.66,7.91
-0.54,0.02,0.87,3.91,10.62,8.47
-0.5,0.02,0.89,5.15,3.98,8.45
-0.45,0.03,0.9,6.53,-1.48,7.96
-0.45,0.03,0.9,6.53,-1.48,7.96
-0.42,0.05,0.89,7.67,-5.37,7.28
-0.4,0.06,0.9,8.37,-7.86,6.73
-0.4,0.07,0.9,8.5,-9.1,6.42
-0.41,0.06,0.89,8.01,-9.44,6.37
-0.43,0.04,0.87,7.06,-9.39,6.55
-0.43,0.04,0.87,7.06,-9.39,6.55
-0.44,0.02,0.85,5.98,-9.42,6.94
-0.44,-0.0,0.84,5.21,-9.88,7.5
-0.43,-0.01,0.82,5.13,-10.81,8.26
-0.41,-0.03,0.81,5.81,-12.08,9.32
-0.38,-0.06,0.8,7.32,-13.54,10.91
-0.38,-0.06,0.8,7.32,-13.54,10.91
-0.36,-0.08,0.78,9.9,-15.0,13.17
-0.36,-0.1,0.75,13.84,-16.44,16.23
-0.38,-0.12,0.73,19.47,-17.89,19.92
-0.4,-0.13,0.73,26.89,-19.42,23.81
-0.41,-0.12,0.73,35.92,-21.14,27.56
-0.41,-0.12,0.73,35.92,-21.14,27.56
-0.41,-0.1,0.73,46.25,-23.01,30.97
-0.41,-0.06,0.75,57.52,-24.83,33.94
-0.41,-0.0,0.79,69.18,-26.36,36.39
-0.43,0.06,0.82,80.48,-27.48,38.16
-0.44,0.12,0.85,90.76,-28.35,39.24
-0.44,0.12,0.85,90.76,-28.35,39.24
-0.45,0.17,0.89,99.43,-29.22,39.75
-0.46,0.23,0.92,106.05,-30.23,39.9
-0.48,0.27,0.94,110.43,-31.53,39.72
-0.49,0.29,0.95,112.48,-33.3,39.15
-0.5,0.3,0.94,112.36,-35.55,38.24
-0.5,0.3,0.94,112.36,-35.55,38.24
-0.48,0.3,0.92,110.6,-38.27,37.02
-0.45,0.27,0.91,107.95,-41.29,35.57
-0.39,0.24,0.88,105.08,-44.28,34.18
-0.35,0.21,0.85,102.57,-46.89,33.11
-0.31,0.19,0.84,100.97,-48.69,32.36
-0.31,0.19,0.84,100.97,-48.69,32.36
-0.28,0.18,0.82,100.66,-49.32,31.77
-0.27,0.17,0.8,101.8,-48.65,31.25
-0.26,0.17,0.78,104.27,-46.86,30.83
-0.26,0.18,0.77,107.91,-44.25,30.49
-0.27,0.2,0.77,112.65,-41.02,30.21
-0.27,0.2,0.77,112.65,-41.02,30.21
-0.28,0.24,0.77,118.21,-37.41,29.9
-0.29,0.28,0.78,124.13,-33.73,29.55
-0.3,0.34,0.79,129.83,-30.25,29.06
-0.32,0.4,0.81,134.76,-27.22,28.5
-0.33,0.45,0.82,138.46,-24.71,27.85
-0.33,0.45,0.82,138.46,-24.71,27.85
-0.32,0.49,0.83,140.65,-22.72,27.08
-0.31,0.52,0.84,141.24,-21.2,26.3
-0.31,0.53,0.83,140.18,-20.25,25.75
-0.31,0.54,0.82,137.69,-19.84,25.43
-0.31,0.53,0.81,134.32,-19.92,25.17
-0.31,0.53,0.81,134.32,-19.92,25.17
-0.32,0.53,0.8,130.6,-20.5,24.96
-0.32,0.54,0.8,126.78,-21.58,24.75
-0.32,0.55,0.8,122.88,-23.06,24.55
-0.32,0.56,0.79,118.88,-24.88,24.16
-0.3,0.57,0.79,114.75,-26.91,23.48
-0.3,0.57,0.79,114.75,-26.91,23.48
-0.29,0.57,0.79,110.45,-28.96,22.56
-0.27,0.57,0.78,105.94,-30.7,21.4
-0.24,0.57,0.78,101.34,-32.01,20.08
-0.23,0.57,0.77,96.79,-32.75,18.72
-0.22,0.57,0.77,92.42,-32.95,17.43
-0.22,0.57,0.77,92.42,-32.95,17.43
-0.22,0.56,0.76,88.27,-32.72,16.22
-0.23,0.56,0.76,84.33,-32.26,15.17
-0.24,0.56,0.75,80.6,-31.77,14.33
-0.24,0.56,0.75,77.05,-31.44,13.68
-0.24,0.56,0.75,73.72,-31.31,13.11
-0.24,0.56,0.75,73.72,-31.31,13.11
-0.23,0.56,0.75,70.56,-31.34,12.57
-0.23,0.57,0.75,67.52,-31.38,11.98
-0.21,0.55,0.74,64.63,-31.26,11.27
-0.18,0.51,0.72,61.84,-30.78,10.37
-0.15,0.46,0.68,59.44,-29.86,9.37
-0.15,0.46,0.68,59.44,-29.86,9.37
-0.12,0.42,0.66,58.38,-27.99,8.24
-0.09,0.4,0.65,59.38,-24.72,7.05
-0.08,0.41,0.64,62.72,-20.01,6.09
-0.1,0.45,0.65,68.07,-14.17,5.48
-0.13,0.51,0.66,74.62,-7.65,5.05
-0.13,0.51,0.66,74.62,-7.65,5.05
-0.16,0.57,0.68,81.34,-1.04,4.71
-0.19,0.63,0.7,87.41,5.12,4.55
-0.23,0.68,0.72,92.27,10.46,4.64
-0.25,0.73,0.73,95.56,14.66,4.9
-0.28,0.78,0.75,97.16,17.52,5.28
-0.28,0.78,0.75,97.16,17.52,5.28
-0.29,0.82,0.77,96.88,19.03,5.67
-0.31,0.84,0.77,94.44,19.29,5.92
-0.31,0.86,0.77,89.85,18.38,5.93
-0.32,0.86,0.76,83.52,16.45,5.7
-0.3,0.86,0.76,75.82,13.79,5.27
-0.3,0.86,0.76,75.82,13.79,5.27
-0.27,0.82,0.75,67.15,10.77,4.75
-0.26,0.77,0.73,58.08,7.68,4.3
-0.25,0.73,0.72,49.43,4.82,3.96
-0.25,0.7,0.71,41.92,2.41,3.68
-0.25,0.68,0.69,35.85,0.42,3.38
-0.25,0.68,0.69,35.85,0.42,3.38
-0.25,0.67,0.68,31.22,-1.25,3.09
-0.24,0.67,0.68,27.82,-2.67,2.8
-0.23,0.68,0.68,25.38,-3.95,2.52
-0.23,0.69,0.68,23.6,-5.06,2.38
-0.23,0.69,0.68,22.22,-6.07,2.37
-0.23,0.69,0.68,22.22,-6.07,2.37
-0.22,0.69,0.68,21.18,-7.02,2.56
-0.21,0.69,0.68,20.54,-7.98,3.01
-0.22,0.69,0.67,20.31,-8.96,3.84
-0.22,0.7,0.67,20.47,-10.07,5.03
-0.23,0.7,0.67,20.94,-11.36,6.47
-0.23,0.7,0.67,20.94,-11.36,6.47
-0.23,0.71,0.68,21.48,-12.85,8.02
-0.22,0.72,0.68,21.88,-14.42,9.55
-0.22,0.73,0.69,21.96,-15.9,10.94
-0.22,0.74,0.69,21.63,-17.14,12.1
-0.22,0.75,0.69,20.95,-17.97,12.9
-0.22,0.75,0.69,20.95,-17.97,12.9
-0.23,0.75,0.68,19.98,-18.29,13.29
-0.23,0.75,0.67,18.73,-18.21,13.28
-0.24,0.74,0.65,17.25,-17.92,12.88
-0.25,0.73,0.64,15.7,-17.57,12.14
-0.24,0.72,0.64,14.33,-17.25,11.14
-0.24,0.72,0.64,14.33,-17.25,11.14
-0.23,0.72,0.63,13.23,-16.97,10.05
-0.22,0.73,0.63,12.4,-16.7,9.02
-0.21,0.74,0.63,11.66,-16.51,8.11
-0.2,0.74,0.63,10.85,-16.3,7.32
-0.19,0.74,0.64,9.85,-16.01,6.59
-0.19,0.74,0.64,9.85,-16.01,6.59
-0.18,0.74,0.64,8.72,-15.63,5.84
-0.18,0.75,0.65,7.56,-15.06,5.07
-0.18,0.76,0.66,6.02,-14.12,4.25
-0.17,0.75,0.65,4.15,-12.88,3.51
-0.16,0.76,0.66,2.34,-11.0,2.55
-0.16,0.76,0.66,2.34,-11.0,2.55
-0.16,0.76,0.67,0.44,-8.77,1.35
-0.17,0.77,0.67,-1.58,-6.1,0.21
-0.2,0.78,0.68,-3.87,-3.43,-0.96
-0.22,0.79,0.69,-6.63,-1.09,-2.45
-0.22,0.77,0.68,-9.78,0.77,-4.14
-0.22,0.77,0.68,-9.78,0.77,-4.14
-0.22,0.76,0.69,-13.14,2.07,-5.59
-0.22,0.76,0.7,-16.48,2.92,-6.65
-0.23,0.77,0.72,-19.63,3.32,-7.4
-0.24,0.77,0.72,-22.79,3.23,-8.02
-0.25,0.77,0.74,-26.13,2.63,-8.55
-0.25,0.77,0.74,-26.13,2.63,-8.55
-0.27,0.77,0.75,-29.81,1.54,-9.04
-0.27,0.76,0.75,-33.83,0.09,-9.69
-0.27,0.76,0.76,-38.01,-1.71,-10.58
-0.26,0.75,0.77,-42.12,-3.74,-11.58
-0.25,0.75,0.78,-46.12,-5.79,-12.51
-0.25,0.75,0.78,-46.12,-5.79,-12.51
-0.24,0.76,0.79,-50.14,-7.75,-13.19
-0.24,0.76,0.79,-54.33,-9.66,-13.64
-0.24,0.76,0.8,-58.83,-11.68,-13.97
-0.23,0.76,0.8,-63.7,-13.63,-14.19
-0.22,0.75,0.81,-68.94,-15.4,-14.25
-0.22,0.75,0.81,-68.94,-15.4,-14.25
-0.23,0.74,0.8,-74.41,-16.91,-14.19
-0.22,0.73,0.8,-79.91,-18.22,-14.03
-0.23,0.72,0.8,-85.32,-19.34,-13.76
-0.23,0.71,0.8,-90.66,-20.32,-13.38
-0.23,0.7,0.81,-95.94,-21.14,-13.03
-0.23,0.7,0.81,-95.94,-21.14,-13.03
-0.22,0.67,0.8,-101.12,-21.85,-12.82
-0.22,0.65,0.79,-106.21,-22.48,-12.68
-0.21,0.61,0.78,-111.09,-23.15,-12.58
-0.19,0.56,0.77,-115.52,-23.74,-12.51
-0.17,0.51,0.76,-119.15,-24.2,-12.39
-0.17,0.51,0.76,-119.15,-24.2,-12.39
-0.16,0.46,0.76,-121.46,-24.32,-12.15
-0.15,0.43,0.76,-122.06,-23.91,-11.75
-0.15,0.41,0.76,-120.81,-22.99,-11.13
-0.16,0.4,0.77,-117.85,-21.67,-10.31
-0.17,0.41,0.79,-113.61,-20.12,-9.33
-0.17,0.41,0.79,-113.61,-20.12,-9.33
-0.18,0.42,0.8,-108.6,-18.5,-8.27
-0.19,0.44,0.82,-103.39,-16.99,-7.24
-0.18,0.46,0.84,-98.45,-15.55,-6.29
-0.18,0.48,0.86,-94.16,-14.06,-5.43
-0.17,0.49,0.87,-90.66,-12.39,-4.8
-0.17,0.49,0.87,-90.66,-12.39,-4.8
-0.16,0.51,0.89,-88.15,-10.41,-4.42
-0.17,0.52,0.9,-86.83,-8.12,-4.36
-0.18,0.52,0.91,-86.83,-5.72,-4.56
-0.19,0.52,0.91,-88.1,-3.54,-4.92
-0.2,0.51,0.91,-90.47,-1.65,-5.39
-0.2,0.51,0.91,-90.47,-1.65,-5.39
-0.21,0.5,0.91,-93.67,-0.1,-5.87
-0.21,0.49,0.91,-97.54,1.1,-6.35
-0.21,0.48,0.91,-102.07,1.96,-6.79
-0.21,0.45,0.91,-107.24,2.5,-7.27
-0.2,0.42,0.89,-112.8,2.78,-7.73
-0.2,0.42,0.89,-112.8,2.78,-7.73
-0.19,0.38,0.89,-118.4,2.99,-8.23
-0.18,0.34,0.87,-123.68,3.26,-8.74
-0.16,0.31,0.87,-128.37,3.83,-9.2
-0.16,0.27,0.86,-132.29,4.85,-9.59
-0.15,0.24,0.86,-135.41,6.3,-10.0
-0.15,0.24,0.86,-135.41,6.3,-10.0
-0.15,0.21,0.85,-137.59,8.1,-10.44
-0.15,0.18,0.84,-138.71,10.17,-10.77
-0.15,0.16,0.83,-138.64,12.44,-10.88
-0.15,0.14,0.83,-137.39,14.96,-10.86
-0.15,0.12,0.83,-135.14,17.75,-10.89
-0.15,0.12,0.83,-135.14,17.75,-10.89
-0.14,0.11,0.83,-132.05,20.81,-11.07
-0.12,0.11,0.83,-128.26,24.2,-11.25
-0.12,0.11,0.83,-124.0,27.93,-11.22
-0.13,0.11,0.84,-119.48,31.76,-10.81
-0.15,0.11,0.84,-114.93,35.44,-10.0
-0.15,0.11,0.84,-114.93,35.44,-10.0
-0.17,0.1,0.85,-110.58,38.82,-8.79
-0.2,0.09,0.87,-106.5,41.82,-7.46
-0.22,0.07,0.88,-102.67,44.51,-6.33
-0.23,0.07,0.88,-99.13,46.86,-5.53
-0.23,0.07,0.89,-95.84,48.93,-5.12
-0.23,0.07,0.89,-95.84,48.93,-5.12
-0.23,0.08,0.9,-92.92,50.95,-5.05
-0.24,0.07,0.92,-90.62,52.97,-5.34
-0.24,0.07,0.92,-89.01,54.91,-5.88
-0.25,0.06,0.91,-88.02,56.75,-6.44
-0.26,0.05,0.92,-87.57,58.38,-6.82
-0.26,0.05,0.92,-87.57,58.38,-6.82
-0.28,0.04,0.92,-87.44,59.61,-6.98
-0.29,0.02,0.91,-87.5,60.22,-6.9
-0.3,-0.0,0.91,-87.57,60.12,-6.5
-0.32,-0.02,0.91,-87.54,59.48,-5.84
-0.33,-0.05,0.9,-87.36,58.37,-5.14
-0.33,-0.05,0.9,-87.36,58.37,-5.14
-0.33,-0.08,0.89,-86.67,56.91,-4.6
-0.33,-0.1,0.89,-85.24,55.32,-4.23
-0.32,-0.11,0.89,-82.97,53.75,-3.95
-0.33,-0.1,0.89,-79.93,52.31,-3.64
-0.35,-0.08,0.9,-76.38,50.85,-3.35
-0.35,-0.08,0.9,-76.38,50.85,-3.35
-0.36,-0.06,0.91,-72.77,49.3,-3.12
-0.37,-0.03,0.92,-69.51,47.61,-3.02
-0.38,-0.01,0.92,-66.78,45.86,-3.13
-0.39,0.0,0.93,-64.74,44.1,-3.44
-0.39,0.0,0.93,-63.55,42.29,-3.8
-0.38,0.01,0.93,-63.55,42.29,-3.8
-0.38,0.01,0.93,-63.31,40.56,-4.09
-0.37,-0.0,0.92,-63.95,38.95,-4.28
-0.38,-0.03,0.91,-65.15,37.43,-4.31
-0.39,-0.06,0.89,-66.47,35.89,-4.16
-0.39,-0.06,0.89,-67.55,34.15,-3.95
-0.4,-0.08,0.87,-67.55,34.15,-3.95
-0.4,-0.09,0.86,-68.2,32.25,-3.95
-0.4,-0.1,0.86,-68.35,30.36,-4.21
-0.41,-0.08,0.87,-68.09,28.55,-4.57
-0.44,-0.06,0.89,-67.75,26.58,-5.08
-0.44,-0.06,0.89,-67.75,26.58,-5.08
-0.49,-0.01,0.91,-67.86,24.08,-6.01
-0.56,0.05,0.94,-68.94,20.54,-7.67
-0.58,0.11,0.98,-71.5,15.6,-10.38
-0.56,0.17,1.03,-76.47,8.98,-13.97
-0.5,0.2,1.04,-84.87,1.08,-18.0
-0.5,0.2,1.04,-84.87,1.08,-18.0
-0.41,0.17,1.02,-96.97,-7.44,-21.92
-0.34,0.08,0.97,-111.89,-15.45,-25.26
-0.28,-0.04,0.9,-128.21,-21.76,-28.06
-0.22,-0.17,0.83,-144.26,-25.85,-30.54
-0.16,-0.3,0.77,-158.53,-27.13,-32.51
-0.16,-0.3,0.77,-158.53,-27.13,-32.51
-0.14,-0.41,0.71,-170.23,-25.58,-33.66
-0.16,-0.51,0.64,-178.51,-22.07,-33.79
-0.19,-0.61,0.58,-181.92,-17.31,-33.05
-0.22,-0.71,0.54,-179.76,-11.99,-31.66
-0.24,-0.78,0.51,-171.89,-6.73,-29.65
-0.24,-0.78,0.51,-171.89,-6.73,-29.65
-0.24,-0.8,0.49,-158.44,-1.88,-26.72
-0.21,-0.8,0.49,-140.0,2.72,-22.87
-0.19,-0.75,0.52,-117.38,7.59,-18.06
-0.21,-0.67,0.58,-92.05,12.84,-12.35
-0.27,-0.58,0.65,-65.88,18.03,-6.06
-0.27,-0.58,0.65,-65.88,18.03,-6.06
-0.36,-0.46,0.73,-40.59,22.75,0.06
-0.44,-0.35,0.78,-17.48,26.75,4.99
-0.49,-0.24,0.82,2.45,29.35,8.39
-0.52,-0.14,0.86,18.5,30.32,10.47
-0.54,-0.04,0.97,30.11,29.97,11.13
-0.54,-0.04,0.97,30.11,29.97,11.13
-0.53,0.04,1.08,35.78,28.71,10.01
-0.46,0.07,1.06,34.63,26.85,7.51
-0.39,0.03,1.01,27.55,24.6,4.85
-0.38,-0.06,0.97,16.37,22.48,2.84
-0.38,-0.17,0.92,3.35,20.83,1.3
-0.38,-0.17,0.92,3.35,20.83,1.3
-0.38,-0.26,0.85,-9.54,19.6,0.08
-0.39,-0.34,0.82,-21.2,18.49,-0.77
-0.41,-0.4,0.81,-31.24,17.17,-1.33
-0.42,-0.45,0.76,-39.3,15.57,-1.88
-0.42,-0.49,0.7,-44.32,13.97,-2.56
-0.42,-0.49,0.7,-44.32,13.97,-2.56
-0.4,-0.53,0.67,-45.7,12.36,-3.22
-0.38,-0.53,0.68,-43.55,10.74,-3.37
-0.39,-0.51,0.7,-38.46,9.2,-2.75
-0.42,-0.46,0.76,-31.43,7.61,-1.64
-0.46,-0.4,0.8,-23.88,5.77,-0.58
-0.46,-0.4,0.8,-23.88,5.77,-0.58
-0.47,-0.33,0.84,-17.2,3.57,-0.08
-0.44,-0.29,0.86,-12.18,1.31,-0.33
-0.41,-0.29,0.87,-9.1,-0.54,-1.02
-0.39,-0.3,0.88,-7.89,-1.94,-1.88
-0.38,-0.32,0.87,-8.23,-2.92,-2.72
-0.38,-0.32,0.87,-8.23,-2.92,-2.72
-0.37,-0.34,0.84,-9.73,-3.38,-3.44
-0.35,-0.37,0.81,-11.85,-3.25,-4.06
-0.34,-0.4,0.79,-13.87,-2.43,-4.53
-0.33,-0.44,0.77,-15.31,-1.09,-4.68
-0.34,-0.46,0.76,-15.75,0.39,-4.34
-0.34,-0.46,0.76,-15.75,0.39,-4.34
-0.37,-0.46,0.75,-15.09,1.73,-3.59
-0.37,-0.46,0.75,-13.43,2.77,-2.67
-0.37,-0.46,0.75,-10.97,3.58,-1.75
-0.37,-0.45,0.75,-7.88,4.26,-0.69
-0.37,-0.42,0.76,-4.28,4.83,0.66
-0.37,-0.42,0.76,-4.28,4.83,0.66
-0.39,-0.4,0.76,-0.33,5.15,2.22
-0.4,-0.37,0.77,3.57,5.33,3.68
-0.39,-0.34,0.79,6.98,5.58,4.74
-0.37,-0.34,0.8,9.54,6.35,5.38
-0.36,-0.34,0.8,11.2,7.65,5.91
-0.36,-0.34,0.8,11.2,7.65,5.91
-0.37,-0.33,0.81,12.13,9.14,6.61
-0.4,-0.32,0.81,12.42,10.67,7.32
-0.43,-0.31,0.81,12.12,12.05,7.68
-0.43,-0.31,0.81,11.23,13.1,7.49
-0.42,-0.31,0.81,9.78,13.82,6.95
-0.42,-0.31,0.81,9.78,13.82,6.95
-0.41,-0.32,0.8,7.98,14.3,6.35
-0.39,-0.33,0.79,5.9,14.77,5.72
-0.38,-0.34,0.78,3.67,15.61,4.9
-0.37,-0.36,0.75,1.55,17.03,4.03
-0.36,-0.36,0.73,-0.13,18.83,3.35
-0.36,-0.36,0.73,-0.13,18.83,3.35
-0.35,-0.37,0.73,-1.27,20.99,3.01
-0.35,-0.38,0.73,-1.87,23.56,3.02
-0.35,-0.4,0.72,-1.95,26.32,3.38
-0.36,-0.42,0.71,-1.44,29.23,4.01
-0.37,-0.45,0.69,-0.19,32.46,4.61
-0.37,-0.45,0.69,-0.19,32.46,4.61
-0.36,-0.48,0.67,2.05,36.16,5.12
-0.35,-0.5,0.65,5.5,40.33,5.78
-0.35,-0.5,0.65,10.39,44.64,6.95
-0.35,-0.49,0.65,16.45,49.12,8.69
-0.36,-0.46,0.66,23.27,53.91,10.92
-0.36,-0.46,0.66,23.27,53.91,10.92
-0.38,-0.43,0.65,30.48,58.88,13.57
-0.4,-0.4,0.65,37.89,63.61,16.56
-0.43,-0.36,0.67,45.26,67.85,19.7
-0.44,-0.33,0.67,52.19,71.86,22.82
-0.46,-0.3,0.68,58.38,75.73,25.73
-0.46,-0.3,0.68,58.38,75.73,25.73
-0.48,-0.28,0.69,63.78,79.58,28.44
-0.51,-0.26,0.69,68.43,82.99,31.06
-0.54,-0.24,0.7,72.36,85.85,33.53
-0.57,-0.22,0.7,75.5,88.12,35.63
-0.6,-0.2,0.7,77.9,89.67,37.33
-0.6,-0.2,0.7,77.9,89.67,37.33
-0.62,-0.18,0.71,79.65,90.27,38.59
-0.63,-0.17,0.71,80.78,89.89,39.51
-0.62,-0.15,0.72,81.24,88.82,39.95
-0.63,-0.14,0.72,81.05,87.54,39.84
-0.63,-0.14,0.72,80.22,86.32,39.29
-0.63,-0.14,0.72,80.22,86.32,39.29
-0.64,-0.12,0.71,78.82,85.07,38.4
-0.64,-0.11,0.73,76.85,83.85,37.18
-0.64,-0.09,0.75,73.95,82.81,35.67
-0.65,-0.08,0.74,69.9,81.95,33.92
-0.67,-0.08,0.73,64.97,81.01,31.94
-0.67,-0.08,0.73,64.97,81.01,31.94
-0.68,-0.09,0.72,59.54,79.79,29.73
-0.68,-0.11,0.71,53.95,78.34,27.17
-0.68,-0.13,0.7,48.53,76.83,24.37
-0.67,-0.14,0.69,43.53,75.28,21.5
-0.66,-0.15,0.68,39.0,73.66,18.77
-0.66,-0.15,0.68,39.0,73.66,18.77
-0.65,-0.15,0.67,34.94,72.17,16.28
-0.65,-0.16,0.66,31.38,71.02,14.14
-0.66,-0.18,0.65,28.49,69.96,12.43
-0.67,-0.18,0.63,26.49,68.7,11.15
-0.68,-0.18,0.63,25.53,67.1,10.36
-0.68,-0.18,0.63,25.53,67.1,10.36
-0.7,-0.17,0.64,25.52,65.14,9.95
-0.7,-0.16,0.65,26.15,62.82,9.92
-0.71,-0.14,0.66,27.12,60.19,10.4
-0.72,-0.13,0.67,28.2,57.13,11.35
-0.73,-0.13,0.67,29.26,53.64,12.64
-0.73,-0.13,0.67,29.26,53.64,12.64
-0.75,-0.12,0.67,30.24,49.83,14.05
-0.77,-0.11,0.66,31.2,45.7,15.53
-0.78,-0.09,0.66,32.21,41.35,16.93
-0.78,-0.08,0.67,33.11,36.91,17.95
-0.78,-0.07,0.66,33.65,32.7,18.41
-0.78,-0.07,0.66,33.65,32.7,18.41
-0.77,-0.07,0.66,33.8,28.89,18.44
-0.76,-0.06,0.66,33.67,25.46,18.16
-0.77,-0.05,0.67,33.31,22.36,17.65
-0.77,-0.05,0.67,32.63,19.49,17.0
-0.76,-0.05,0.68,31.6,16.64,16.3
-0.76,-0.05,0.68,31.6,16.64,16.3
-0.75,-0.05,0.67,30.25,13.7,15.65
-0.75,-0.07,0.67,28.69,10.72,15.11
-0.74,-0.08,0.66,27.19,7.73,14.72
-0.73,-0.09,0.65,25.95,4.82,14.52
-0.7,-0.1,0.64,25.09,2.06,14.6
-0.7,-0.1,0.64,25.09,2.06,14.6
-0.67,-0.11,0.63,24.6,-0.34,15.16
-0.66,-0.12,0.62,24.56,-2.11,16.35
-0.65,-0.14,0.6,25.21,-3.25,18.15
-0.66,-0.15,0.59,26.82,-3.77,20.37
