ax,ay,az,gx,gy,gz
-0.34,-0.28,0.75,-35.38,-11.26,-11.57
-0.35,-0.25,0.74,-28.06,-5.3,-10.27
-0.38,-0.2,0.74,-19.47,0.7,-8.01
-0.42,-0.14,0.76,-10.12,6.17,-5.08
-0.46,-0.08,0.77,-0.66,10.77,-1.69
-0.46,-0.08,0.77,-0.66,10.77,-1.69
-0.5,-0.0,0.78,8.38,14.2,1.85
-0.54,0.06,0.81,16.47,16.27,5.29
-0.56,0.12,0.85,23.04,16.94,8.3
-0.59,0.18,0.87,27.67,16.37,10.62
-0.62,0.23,0.89,30.05,14.8,12.04
-0.62,0.23,0.89,30.05,14.8,12.04
-0.64,0.27,0.91,30.11,12.3,12.35
-0.63,0.29,0.94,27.7,8.73,11.52
-0.6,0.3,0.95,22.65,4.24,9.71
-0.57,0.26,0.95,15.12,-0.61,7.29
-0.54,0.2,0.93,5.78,-5.32,4.52
-0.54,0.2,0.93,5.78,-5.32,4.52
-0.51,0.12,0.89,-4.35,-9.65,1.57
-0.49,0.04,0.86,-14.08,-13.43,-1.36
-0.46,-0.03,0.83,-22.38,-16.52,-3.98
-0.43,-0.08,0.82,-28.79,-18.99,-6.19
-0.38,-0.12,0.82,-33.17,-20.65,-7.93
-0.38,-0.12,0.82,-33.17,-20.65,-7.93
-0.34,-0.16,0.83,-35.71,-20.99,-9.2
-0.31,-0.21,0.81,-36.58,-19.32,-10.12
-0.3,-0.27,0.78,-35.66,-15.7,-10.43
-0.3,-0.27,0.75,-32.46,-10.75,-9.73
-0.35,-0.24,0.74,-26.8,-4.86,-7.92
-0.35,-0.24,0.74,-26.8,-4.86,-7.92
-0.41,-0.19,0.77,-19.21,1.18,-5.32
-0.44,-0.14,0.8,-10.7,6.78,-2.46
-0.46,-0.1,0.82,-2.18,11.86,0.35
-0.48,-0.06,0.82,6.01,16.33,3.17
-0.5,0.0,0.84,13.72,20.02,6.07
-0.5,0.0,0.84,13.72,20.02,6.07
-0.52,0.06,0.86,20.57,22.92,8.87
-0.55,0.11,0.89,26.01,25.03,11.34
-0.58,0.14,0.9,29.62,26.24,13.37
-0.6,0.17,0.9,31.34,26.5,14.89
-0.62,0.18,0.9,31.34,25.64,15.79
-0.62,0.18,0.9,31.34,25.64,15.79
-0.64,0.2,0.91,29.8,23.47,16.06
-0.65,0.2,0.93,26.78,19.9,15.74
-0.66,0.2,0.94,22.26,15.01,14.87
-0.65,0.18,0.93,16.42,9.03,13.44
-0.62,0.15,0.93,9.65,2.31,11.6
-0.62,0.15,0.93,9.65,2.31,11.6
-0.59,0.1,0.92,2.38,-4.68,9.49
-0.56,0.06,0.91,-4.89,-11.36,7.16
-0.52,0.02,0.89,-11.78,-17.39,4.75
-0.49,-0.03,0.88,-17.91,-22.44,2.35
-0.45,-0.07,0.87,-22.96,-26.24,-0.03
-0.45,-0.07,0.87,-22.96,-26.24,-0.03
-0.41,-0.12,0.86,-26.81,-28.57,-2.32
-0.37,-0.16,0.84,-29.31,-29.26,-4.36
-0.33,-0.19,0.82,-30.36,-28.18,-6.01
-0.32,-0.22,0.8,-29.74,-25.29,-7.04
-0.32,-0.24,0.79,-27.34,-20.89,-7.47
-0.32,-0.24,0.79,-27.34,-20.89,-7.47
-0.33,-0.24,0.77,-23.17,-15.28,-7.2
-0.36,-0.21,0.75,-17.33,-8.85,-6.1
-0.4,-0.15,0.75,-9.93,-2.4,-4.35
-0.44,-0.08,0.8,-1.67,3.49,-2.21
-0.48,-0.01,0.84,6.16,8.72,0.15
-0.48,-0.01,0.84,6.16,8.72,0.15
-0.52,0.06,0.85,12.57,13.11,2.53
-0.56,0.1,0.86,17.41,16.17,4.61
-0.59,0.14,0.88,20.75,17.59,6.29
-0.62,0.18,0.91,22.4,17.41,7.51
-0.63,0.22,0.93,22.17,15.66,8.15
-0.63,0.22,0.93,22.17,15.66,8.15
-0.63,0.23,0.94,19.87,12.47,8.16
-0.62,0.21,0.95,15.48,8.23,7.53
-0.59,0.17,0.95,9.33,3.2,6.38
-0.55,0.11,0.92,2.14,-2.19,4.86
-0.53,0.06,0.9,-5.18,-7.35,3.19
-0.53,0.06,0.9,-5.18,-7.35,3.19
-0.51,0.0,0.88,-12.01,-12.12,1.4
-0.48,-0.04,0.87,-18.0,-16.24,-0.46
-0.44,-0.09,0.86,-22.93,-19.52,-2.2
-0.4,-0.13,0.84,-26.65,-21.79,-3.79
-0.36,-0.18,0.85,-28.98,-22.81,-5.34
-0.36,-0.18,0.85,-28.98,-22.81,-5.34
-0.34,-0.21,0.82,-29.76,-22.04,-6.75
-0.33,-0.23,0.8,-28.88,-19.3,-7.7
-0.32,-0.23,0.81,-26.3,-15.06,-8.13
-0.33,-0.23,0.8,-22.16,-9.65,-8.06
-0.38,-0.2,0.79,-16.77,-3.47,-7.33
-0.38,-0.2,0.79,-16.77,-3.47,-7.33
-0.43,-0.15,0.79,-10.33,2.73,-6.0
-0.48,-0.09,0.81,-3.23,8.16,-4.36
-0.5,-0.03,0.84,3.84,12.56,-2.54
-0.53,0.03,0.86,10.28,15.8,-0.6
-0.55,0.1,0.88,15.55,17.92,1.37
-0.55,0.1,0.88,15.55,17.92,1.37
-0.57,0.14,0.9,19.24,18.86,3.26
-0.58,0.17,0.92,21.1,18.59,4.94
-0.59,0.18,0.93,21.05,17.27,6.23
-0.6,0.17,0.93,19.22,15.07,7.03
-0.6,0.15,0.92,15.98,12.02,7.29
-0.6,0.15,0.92,15.98,12.02,7.29
-0.58,0.12,0.91,11.83,8.24,7.07
-0.56,0.08,0.9,7.27,4.07,6.54
-0.53,0.05,0.89,2.64,-0.29,5.89
-0.51,0.0,0.88,-1.77,-4.59,5.17
-0.48,-0.03,0.87,-5.74,-8.47,4.28
-0.48,-0.03,0.87,-5.74,-8.47,4.28
-0.46,-0.06,0.86,-8.98,-11.7,3.27
-0.45,-0.07,0.85,-11.43,-14.03,2.21
-0.42,-0.07,0.85,-13.19,-15.47,1.04
-0.4,-0.08,0.86,-14.39,-15.92,-0.26
-0.39,-0.1,0.85,-15.14,-15.12,-1.59
-0.39,-0.1,0.85,-15.14,-15.12,-1.59
-0.4,-0.11,0.84,-15.47,-12.93,-2.73
-0.41,-0.12,0.83,-15.21,-9.79,-3.65
-0.41,-0.13,0.82,-14.23,-5.98,-4.29
-0.42,-0.13,0.82,-12.49,-1.64,-4.69
-0.43,-0.14,0.81,-9.91,2.95,-4.91
-0.43,-0.14,0.81,-9.91,2.95,-4.91
-0.46,-0.11,0.79,-6.48,7.59,-4.74
-0.47,-0.07,0.8,-2.28,11.72,-4.09
-0.49,-0.03,0.82,2.19,14.94,-3.03
-0.51,0.02,0.83,6.26,17.17,-1.62
-0.54,0.06,0.84,9.56,18.33,0.06
-0.54,0.06,0.84,9.56,18.33,0.06
-0.56,0.08,0.86,11.89,18.37,1.72
-0.57,0.1,0.86,13.22,17.32,3.17
-0.58,0.12,0.88,13.52,15.32,4.36
-0.59,0.13,0.9,12.72,12.47,5.16
-0.59,0.13,0.9,10.72,8.89,5.55
-0.59,0.13,0.91,10.72,8.89,5.55
-0.59,0.11,0.91,7.61,4.74,5.51
-0.57,0.08,0.91,3.71,0.3,5.14
-0.55,0.04,0.9,-0.45,-4.21,4.64
-0.53,0.02,0.9,-4.53,-8.49,3.97
-0.53,0.02,0.9,-8.36,-12.28,3.1
-0.51,0.0,0.89,-8.36,-12.28,3.1
-0.48,-0.02,0.9,-12.04,-15.47,2.01
-0.44,-0.06,0.91,-15.51,-17.67,0.75
-0.42,-0.09,0.89,-18.61,-18.46,-0.54
-0.4,-0.12,0.87,-21.02,-17.88,-1.71
-0.4,-0.12,0.87,-21.02,-17.88,-1.71
-0.39,-0.14,0.86,-22.49,-16.07,-2.72
-0.38,-0.17,0.84,-22.97,-13.14,-3.52
-0.38,-0.2,0.82,-22.28,-9.29,-4.06
-0.37,-0.22,0.8,-20.17,-4.82,-4.19
-0.4,-0.19,0.79,-16.52,0.2,-3.9
-0.4,-0.19,0.79,-16.52,0.2,-3.9
-0.44,-0.14,0.79,-11.59,5.44,-3.26
-0.47,-0.08,0.82,-6.08,10.15,-2.43
-0.49,-0.03,0.84,-0.77,13.9,-1.37
-0.51,0.02,0.86,3.66,16.56,-0.05
-0.54,0.06,0.87,6.89,18.16,1.47
-0.54,0.06,0.87,6.89,18.16,1.47
-0.57,0.08,0.88,8.88,18.52,2.99
-0.59,0.09,0.88,9.72,17.72,4.27
-0.6,0.1,0.89,9.55,15.95,5.22
-0.59,0.11,0.9,8.47,13.46,5.78
-0.58,0.11,0.91,6.46,10.6,5.94
-0.58,0.11,0.91,6.46,10.6,5.94
-0.57,0.1,0.91,3.52,7.64,5.81
-0.55,0.08,0.9,-0.17,4.77,5.48
-0.54,0.05,0.88,-4.28,2.01,5.14
-0.52,0.01,0.87,-8.42,-0.65,4.85
-0.51,-0.03,0.86,-12.1,-3.1,4.57
-0.51,-0.03,0.86,-12.1,-3.1,4.57
-0.5,-0.07,0.84,-15.0,-5.2,4.26
-0.47,-0.08,0.83,-16.78,-6.85,3.99
-0.44,-0.09,0.84,-17.52,-7.87,3.7
-0.4,-0.1,0.85,-17.58,-7.68,3.24
-0.39,-0.12,0.84,-17.17,-6.01,2.68
-0.39,-0.12,0.84,-17.17,-6.01,2.68
-0.39,-0.12,0.82,-16.21,-3.06,2.42
-0.4,-0.1,0.81,-14.54,0.72,2.63
-0.42,-0.08,0.84,-12.42,5.05,3.11
-0.45,-0.07,0.85,-10.27,9.82,3.56
-0.49,-0.05,0.83,-8.31,14.91,4.04
-0.49,-0.05,0.83,-8.31,14.91,4.04
-0.53,-0.03,0.82,-6.38,19.51,4.57
-0.56,0.01,0.84,-4.33,22.91,5.16
-0.6,0.06,0.87,-2.58,24.79,5.76
-0.61,0.1,0.9,-1.76,24.98,6.37
-0.62,0.13,0.92,-2.39,23.44,6.9
-0.62,0.13,0.92,-2.39,23.44,6.9
-0.62,0.13,0.93,-4.63,20.35,7.29
-0.61,0.11,0.92,-8.18,16.1,7.52
-0.59,0.08,0.92,-12.65,11.02,7.57
-0.57,0.05,0.91,-17.54,5.56,7.48
-0.55,0.02,0.9,-22.49,0.2,7.32
-0.55,0.02,0.9,-22.49,0.2,7.32
-0.53,-0.01,0.89,-27.32,-4.66,6.97
-0.49,-0.05,0.88,-31.83,-8.74,6.13
-0.45,-0.09,0.85,-35.69,-11.6,4.66
-0.42,-0.11,0.83,-38.59,-12.88,2.85
-0.38,-0.11,0.82,-40.61,-12.32,0.98
-0.38,-0.11,0.82,-40.61,-12.32,0.98
-0.34,-0.14,0.82,-42.03,-9.86,-0.87
-0.33,-0.19,0.81,-42.94,-5.53,-2.4
-0.34,-0.23,0.76,-43.02,0.5,-3.18
-0.38,-0.24,0.74,-41.52,7.71,-3.14
-0.44,-0.23,0.73,-38.07,15.07,-2.46
-0.44,-0.23,0.73,-38.07,15.07,-2.46
-0.48,-0.21,0.75,-33.0,21.87,-1.3
-0.51,-0.17,0.77,-26.93,27.59,0.28
-0.55,-0.13,0.79,-20.5,31.87,2.24
-0.59,-0.07,0.81,-14.3,34.43,4.44
-0.63,0.0,0.84,-8.82,35.1,6.57
-0.63,0.0,0.84,-8.82,35.1,6.57
-0.66,0.07,0.87,-4.68,33.77,8.35
-0.67,0.12,0.92,-2.49,30.62,9.61
-0.67,0.15,0.95,-2.76,26.17,10.35
-0.65,0.16,0.97,-5.64,20.81,10.51
-0.63,0.12,0.97,-10.97,14.94,10.06
-0.63,0.12,0.97,-10.97,14.94,10.06
-0.6,0.07,0.94,-18.11,9.08,9.06
-0.59,0.0,0.9,-26.09,3.56,7.55
-0.57,-0.08,0.86,-33.91,-1.47,5.65
-0.53,-0.15,0.83,-40.94,-5.96,3.36
-0.49,-0.22,0.81,-46.45,-9.57,0.71
-0.49,-0.22,0.81,-46.45,-9.57,0.71
-0.45,-0.28,0.78,-49.98,-11.7,-2.04
-0.4,-0.3,0.75,-51.49,-12.02,-4.55
-0.34,-0.32,0.75,-50.96,-10.37,-6.64
-0.3,-0.33,0.76,-48.63,-6.59,-7.99
-0.31,-0.33,0.74,-44.95,-0.65,-8.25
-0.31,-0.33,0.74,-44.95,-0.65,-8.25
-0.34,-0.32,0.72,-40.09,6.97,-7.54
-0.39,-0.31,0.71,-33.97,15.38,-6.06
-0.44,-0.28,0.7,-26.71,23.76,-3.79
-0.49,-0.24,0.71,-18.7,31.2,-0.67
-0.55,-0.17,0.74,-10.38,36.99,2.98
-0.55,-0.17,0.74,-10.38,36.99,2.98
-0.62,-0.1,0.77,-2.41,40.66,6.71
-0.67,-0.03,0.81,4.56,42.05,10.12
-0.71,0.04,0.84,10.01,41.32,12.98
-0.74,0.1,0.88,13.45,38.84,15.05
-0.75,0.13,0.9,14.61,34.97,16.17
-0.75,0.13,0.9,14.61,34.97,16.17
-0.76,0.15,0.91,13.32,29.96,16.35
-0.76,0.16,0.9,9.82,23.96,15.69
-0.73,0.16,0.88,4.63,17.17,14.28
-0.67,0.13,0.87,-1.77,9.97,12.26
-0.61,0.1,0.86,-9.14,3.02,10.11
-0.61,0.1,0.86,-9.14,3.02,10.11
-0.56,0.04,0.83,-17.12,-3.22,8.14
-0.53,-0.02,0.8,-25.19,-8.44,6.5
-0.5,-0.09,0.77,-32.72,-12.61,5.39
-0.45,-0.15,0.75,-39.23,-15.56,4.81
-0.41,-0.23,0.75,-44.39,-16.86,4.6
-0.41,-0.23,0.75,-44.39,-16.86,4.6
-0.4,-0.31,0.71,-47.67,-16.18,4.84
-0.38,-0.37,0.67,-48.71,-13.67,5.45
-0.36,-0.41,0.65,-47.15,-9.56,6.13
-0.36,-0.42,0.64,-42.84,-3.7,7.0
-0.41,-0.39,0.63,-36.01,3.79,8.38
-0.41,-0.39,0.63,-36.01,3.79,8.38
-0.47,-0.33,0.67,-27.37,11.85,10.23
-0.55,-0.26,0.73,-17.95,19.54,12.25
-0.6,-0.16,0.76,-9.14,26.05,14.09
-0.63,-0.07,0.8,-1.56,30.72,15.92
-0.67,0.0,0.86,4.18,33.37,17.88
-0.67,0.0,0.86,4.18,33.37,17.88
-0.71,0.05,0.89,7.31,33.94,19.65
-0.73,0.07,0.9,7.63,32.39,20.98
-0.74,0.06,0.9,5.58,28.97,21.81
-0.73,0.04,0.89,1.82,24.12,22.03
-0.72,0.01,0.87,-3.08,18.27,21.58
-0.72,0.01,0.87,-3.08,18.27,21.58
-0.69,-0.02,0.86,-8.67,11.94,20.52
-0.65,-0.06,0.84,-14.58,5.57,18.98
-0.61,-0.1,0.82,-20.47,-0.28,16.97
-0.57,-0.16,0.8,-25.91,-4.95,14.42
-0.53,-0.22,0.76,-30.35,-7.91,11.38
-0.53,-0.22,0.76,-30.35,-7.91,11.38
-0.49,-0.27,0.73,-33.23,-9.19,8.28
-0.46,-0.29,0.71,-34.18,-9.04,5.7
-0.45,-0.3,0.73,-33.18,-7.62,4.17
-0.46,-0.28,0.75,-30.77,-5.1,3.62
-0.48,-0.28,0.76,-27.55,-1.48,3.59
-0.48,-0.28,0.76,-27.55,-1.48,3.59
-0.5,-0.3,0.74,-23.75,2.88,3.82
-0.53,-0.29,0.72,-19.19,7.41,4.51
-0.57,-0.24,0.72,-13.81,11.42,5.72
-0.6,-0.19,0.75,-7.98,14.38,7.34
-0.63,-0.14,0.8,-2.54,16.17,9.03
-0.63,-0.14,0.8,-2.54,16.17,9.03
-0.65,-0.1,0.83,1.8,16.91,10.59
-0.68,-0.08,0.82,4.74,16.75,11.77
-0.72,-0.06,0.82,6.4,15.44,12.36
-0.73,-0.03,0.83,7.03,12.83,12.28
-0.73,0.02,0.86,6.51,8.99,11.6
-0.73,0.02,0.86,6.51,8.99,11.6
-0.71,0.06,0.89,4.4,4.33,10.37
-0.68,0.08,0.91,0.25,-0.83,8.71
-0.65,0.06,0.91,-6.15,-6.04,6.82
-0.62,0.02,0.88,-14.31,-10.97,4.97
-0.59,-0.04,0.85,-23.36,-15.5,3.37
-0.59,-0.04,0.85,-23.36,-15.5,3.37
-0.55,-0.11,0.82,-32.44,-19.27,1.93
-0.52,-0.19,0.8,-40.84,-21.74,0.52
-0.51,-0.27,0.76,-47.76,-22.47,-0.94
-0.49,-0.35,0.71,-52.55,-21.52,-2.32
-0.47,-0.41,0.67,-54.55,-19.29,-3.4
-0.47,-0.41,0.67,-54.55,-19.29,-3.4
-0.46,-0.45,0.65,-53.5,-15.89,-4.1
-0.44,-0.47,0.65,-49.58,-11.38,-4.34
-0.44,-0.47,0.64,-43.05,-6.14,-4.08
-0.46,-0.41,0.64,-34.29,-0.73,-3.15
-0.49,-0.34,0.66,-24.04,4.45,-1.47
-0.49,-0.34,0.66,-24.04,4.45,-1.47
-0.52,-0.25,0.72,-13.45,8.99,0.89
-0.55,-0.18,0.77,-3.76,12.69,3.72
-0.58,-0.12,0.79,4.25,15.49,6.81
-0.61,-0.09,0.79,10.41,17.41,9.97
-0.64,-0.07,0.79,14.97,18.37,12.95
-0.64,-0.07,0.79,14.97,18.37,12.95
-0.67,-0.05,0.79,18.27,18.39,15.37
-0.7,-0.04,0.81,20.37,17.61,16.8
-0.73,-0.02,0.82,21.13,16.26,16.83
-0.73,-0.02,0.82,20.63,14.4,15.54
-0.73,-0.02,0.82,19.13,11.85,13.3
-0.73,-0.02,0.82,19.13,11.85,13.3
-0.71,-0.01,0.82,16.77,8.64,10.45
-0.7,-0.0,0.84,13.47,4.93,7.34
-0.67,-0.02,0.85,9.24,0.74,4.18
-0.63,-0.04,0.84,4.31,-3.5,1.31
-0.61,-0.06,0.83,-0.96,-7.3,-0.94
-0.61,-0.06,0.83,-0.96,-7.3,-0.94
-0.6,-0.09,0.81,-6.23,-10.54,-2.48
-0.58,-0.12,0.81,-11.25,-13.28,-3.44
-0.55,-0.17,0.79,-15.94,-15.4,-4.02
-0.51,-0.24,0.77,-19.92,-16.52,-4.41
-0.49,-0.3,0.73,-22.55,-16.34,-4.47
-0.49,-0.3,0.73,-22.55,-16.34,-4.47
-0.49,-0.33,0.7,-23.43,-14.89,-4.17
-0.48,-0.33,0.68,-22.37,-12.41,-3.51
-0.48,-0.31,0.68,-19.63,-9.03,-2.59
-0.49,-0.31,0.7,-15.79,-4.76,-1.75
-0.5,-0.32,0.69,-11.26,0.26,-1.24
-0.5,-0.32,0.69,-11.26,0.26,-1.24
-0.5,-0.31,0.66,-6.01,5.77,-0.99
-0.52,-0.27,0.66,0.03,11.24,-0.66
-0.55,-0.21,0.69,6.53,16.17,-0.08
-0.59,-0.15,0.74,12.71,20.08,0.69
-0.61,-0.1,0.77,17.64,22.66,1.69
-0.61,-0.1,0.77,17.64,22.66,1.69
-0.63,-0.06,0.78,20.86,23.78,2.87
-0.65,-0.04,0.8,22.42,23.52,4.07
-0.67,-0.04,0.8,22.5,22.02,4.9
-0.67,-0.05,0.8,21.41,19.42,5.21
-0.67,-0.06,0.79,19.54,15.97,5.08
-0.67,-0.06,0.79,19.54,15.97,5.08
-0.68,-0.05,0.79,17.16,11.75,4.52
-0.69,-0.05,0.8,14.3,6.8,3.46
-0.68,-0.04,0.82,10.82,1.36,1.98
-0.65,-0.03,0.83,6.63,-4.3,0.38
-0.62,-0.03,0.83,1.71,-9.79,-1.18
-0.62,-0.03,0.83,1.71,-9.79,-1.18
-0.62,-0.02,0.82,-3.93,-14.82,-2.59
-0.65,-0.02,0.81,-10.13,-19.6,-4.17
-0.64,-0.03,0.81,-16.57,-24.56,-6.1
-0.62,-0.02,0.83,-23.42,-29.86,-8.17
-0.58,-0.03,0.85,-30.96,-35.03,-10.15
-0.58,-0.03,0.85,-30.96,-35.03,-10.15
-0.52,-0.06,0.86,-39.29,-39.64,-11.85
-0.47,-0.12,0.85,-48.29,-43.2,-13.16
-0.43,-0.19,0.82,-57.43,-45.05,-14.03
-0.41,-0.28,0.78,-65.75,-44.9,-14.41
-0.39,-0.37,0.73,-72.25,-42.71,-14.31
-0.39,-0.37,0.73,-72.25,-42.71,-14.31
-0.39,-0.46,0.7,-76.18,-38.5,-13.86
-0.41,-0.53,0.65,-76.73,-32.21,-13.27
-0.42,-0.58,0.61,-73.44,-24.29,-12.64
-0.43,-0.6,0.59,-66.16,-15.5,-11.79
-0.46,-0.56,0.6,-55.13,-6.3,-10.34
-0.46,-0.56,0.6,-55.13,-6.3,-10.34
-0.49,-0.48,0.64,-41.44,2.65,-7.91
-0.54,-0.38,0.7,-26.52,10.54,-4.44
-0.58,-0.29,0.75,-11.91,16.88,-0.23
-0.61,-0.22,0.79,1.37,21.57,4.45
-0.64,-0.17,0.8,12.88,24.66,9.18
-0.64,-0.17,0.8,12.88,24.66,9.18
-0.66,-0.13,0.8,22.55,26.3,13.64
-0.69,-0.08,0.82,30.32,26.66,17.63
-0.71,-0.03,0.84,36.08,25.8,20.78
-0.72,0.02,0.87,39.51,23.9,22.76
-0.72,0.05,0.89,40.33,21.09,23.62
-0.72,0.05,0.89,40.33,21.09,23.62
-0.71,0.05,0.89,38.46,17.52,23.52
-0.7,0.04,0.88,34.24,13.35,22.63
-0.69,0.01,0.87,28.24,8.79,21.22
-0.68,-0.02,0.85,21.11,3.87,19.39
-0.66,-0.06,0.82,13.41,-1.15,17.15
-0.66,-0.06,0.82,13.41,-1.15,17.15
-0.62,-0.11,0.81,5.75,-5.86,14.66
-0.58,-0.16,0.8,-1.51,-9.83,12.06
-0.53,-0.21,0.79,-8.17,-12.54,9.27
-0.49,-0.28,0.77,-13.88,-13.42,6.19
-0.46,-0.35,0.74,-18.32,-12.25,3.33
-0.46,-0.35,0.74,-18.32,-12.25,3.33
-0.45,-0.39,0.69,-20.92,-9.52,1.21
-0.46,-0.4,0.67,-21.27,-5.67,-0.07
-0.48,-0.41,0.67,-19.41,-1.26,-0.72
-0.51,-0.4,0.66,-15.7,3.42,-0.77
-0.52,-0.36,0.66,-10.54,7.93,-0.16
-0.52,-0.36,0.66,-10.54,7.93,-0.16
-0.53,-0.31,0.67,-4.29,11.91,1.02
-0.56,-0.26,0.71,2.36,15.29,2.63
-0.59,-0.21,0.73,8.65,17.95,4.49
-0.62,-0.15,0.74,14.04,19.61,6.36
-0.64,-0.1,0.76,18.26,20.29,7.95
-0.64,-0.1,0.76,18.26,20.29,7.95
-0.65,-0.05,0.79,20.98,19.98,9.15
-0.65,-0.01,0.82,21.72,18.77,9.95
-0.65,0.02,0.84,20.12,16.84,10.29
-0.66,0.01,0.84,16.19,14.19,10.13
-0.67,-0.03,0.82,10.49,10.83,9.52
-0.67,-0.03,0.82,10.49,10.83,9.52
-0.66,-0.08,0.79,3.88,6.83,8.55
-0.65,-0.12,0.78,-2.79,2.17,7.31
-0.63,-0.16,0.78,-8.98,-2.75,5.84
-0.62,-0.19,0.76,-14.48,-7.49,4.26
-0.61,-0.2,0.75,-19.1,-11.94,2.64
-0.61,-0.2,0.75,-19.1,-11.94,2.64
-0.6,-0.22,0.75,-22.74,-16.02,0.99
-0.58,-0.22,0.75,-25.54,-19.53,-0.51
-0.56,-0.23,0.77,-27.66,-22.32,-1.78
-0.52,-0.24,0.77,-29.27,-24.31,-2.83
-0.47,-0.27,0.77,-30.35,-25.29,-3.85
-0.47,-0.27,0.77,-30.35,-25.29,-3.85
-0.45,-0.28,0.77,-30.71,-24.55,-4.74
-0.46,-0.31,0.75,-30.42,-21.52,-5.51
-0.46,-0.35,0.72,-29.36,-16.58,-6.1
-0.46,-0.37,0.7,-27.01,-10.67,-6.31
-0.47,-0.38,0.69,-23.16,-4.05,-6.15
-0.47,-0.38,0.69,-23.16,-4.05,-6.15
-0.51,-0.37,0.69,-17.84,2.93,-5.67
-0.57,-0.34,0.69,-11.24,9.82,-4.91
-0.59,-0.3,0.68,-3.85,15.98,-3.86
-0.61,-0.23,0.7,4.03,20.83,-2.44
-0.61,-0.23,0.7,11.83,24.09,-0.75
-0.63,-0.15,0.73,11.83,24.09,-0.75
-0.65,-0.07,0.78,18.61,25.75,1.11
-0.67,-0.0,0.82,23.39,25.9,3.04
-0.67,0.04,0.85,25.59,24.81,4.8
-0.68,0.04,0.86,25.13,22.64,6.2
-0.68,0.04,0.86,25.13,22.64,6.2
-0.68,0.02,0.85,22.34,19.58,7.18
-0.68,-0.02,0.84,17.88,15.79,7.74
-0.68,-0.06,0.81,12.53,11.39,7.86
-0.66,-0.1,0.8,6.93,6.56,7.56
-0.65,-0.13,0.79,1.44,1.56,6.95
-0.65,-0.13,0.79,1.44,1.56,6.95
-0.62,-0.15,0.79,-3.8,-3.32,6.13
-0.59,-0.19,0.78,-8.74,-7.78,5.2
-0.57,-0.21,0.77,-13.15,-11.7,4.31
-0.56,-0.24,0.76,-16.85,-15.08,3.57
-0.55,-0.25,0.75,-19.78,-17.96,2.99
-0.55,-0.25,0.75,-19.78,-17.96,2.99
-0.53,-0.26,0.75,-21.92,-20.4,2.55
-0.51,-0.28,0.76,-23.37,-22.26,2.21
-0.48,-0.3,0.77,-24.2,-23.3,1.81
-0.46,-0.31,0.76,-24.36,-23.12,1.24
-0.46,-0.33,0.75,-23.83,-21.19,0.4
-0.46,-0.33,0.75,-23.83,-21.19,0.4
-0.47,-0.36,0.73,-22.46,-17.45,-0.59
-0.47,-0.36,0.71,-20.1,-12.44,-1.31
-0.48,-0.34,0.72,-16.71,-6.62,-1.81
-0.52,-0.31,0.74,-12.53,-0.22,-2.26
-0.57,-0.28,0.74,-8.02,6.35,-2.57
-0.57,-0.28,0.74,-8.02,6.35,-2.57
-0.61,-0.24,0.72,-3.47,12.2,-2.68
-0.62,-0.18,0.74,1.07,16.66,-2.39
-0.64,-0.13,0.78,5.11,19.62,-1.65
-0.66,-0.11,0.8,7.95,21.12,-0.62
-0.66,-0.1,0.8,9.29,21.3,0.56
-0.66,-0.1,0.8,9.29,21.3,0.56
-0.66,-0.11,0.79,9.49,20.38,1.77
-0.66,-0.12,0.78,9.03,18.68,2.9
-0.65,-0.14,0.78,8.24,16.49,3.88
-0.65,-0.15,0.77,7.27,13.98,4.65
-0.66,-0.16,0.77,6.19,11.27,5.09
-0.66,-0.16,0.77,6.19,11.27,5.09
-0.68,-0.16,0.77,5.04,8.23,5.23
-0.68,-0.17,0.78,3.9,4.76,5.02
-0.67,-0.17,0.78,2.78,0.73,4.59
-0.66,-0.18,0.79,1.63,-3.66,3.99
-0.64,-0.19,0.79,0.35,-8.1,3.24
-0.64,-0.19,0.79,0.35,-8.1,3.24
-0.62,-0.21,0.78,-1.0,-12.33,2.43
-0.6,-0.21,0.78,-2.28,-16.24,1.64
-0.59,-0.22,0.78,-3.46,-19.76,0.92
-0.56,-0.22,0.78,-4.61,-22.81,0.41
-0.52,-0.23,0.78,-5.83,-25.05,-0.02
-0.52,-0.23,0.78,-5.83,-25.05,-0.02
-0.5,-0.26,0.78,-6.98,-25.98,-0.57
-0.49,-0.28,0.76,-7.76,-25.32,-1.22
-0.49,-0.29,0.73,-7.99,-23.01,-1.94
-0.49,-0.28,0.72,-7.51,-19.52,-2.61
