ax,ay,az,gx,gy,gz
0.09,-0.02,1.05,-16.02,11.05,1.79
0.09,-0.02,1.05,-15.76,10.9,1.82
0.09,-0.02,1.05,-15.76,10.9,1.82
0.1,-0.02,1.04,-15.62,10.64,1.83
0.11,-0.03,1.04,-15.56,10.33,1.8
0.11,-0.03,1.04,-15.47,10.08,1.72
0.11,-0.03,1.04,-15.3,9.83,1.64
0.11,-0.04,1.04,-15.09,9.62,1.56
0.11,-0.04,1.04,-15.09,9.62,1.56
0.11,-0.04,1.04,-14.87,9.42,1.44
0.11,-0.04,1.04,-14.55,9.15,1.3
0.12,-0.03,1.04,-14.15,8.94,1.2
0.11,-0.03,1.04,-13.79,8.84,1.1
0.11,-0.03,1.05,-13.41,8.78,1.02
0.11,-0.03,1.05,-13.41,8.78,1.02
0.11,-0.03,1.05,-13.11,8.71,0.88
0.12,-0.02,1.05,-12.93,8.63,0.77
0.12,-0.03,1.05,-12.84,8.6,0.71
0.13,-0.03,1.04,-12.84,8.65,0.71
0.12,-0.03,1.04,-12.89,8.71,0.77
0.12,-0.03,1.04,-12.89,8.71,0.77
0.12,-0.02,1.04,-13.0,8.82,0.81
0.12,-0.02,1.05,-13.15,8.89,0.81
0.13,-0.02,1.05,-13.39,8.99,0.76
0.13,-0.02,1.05,-13.73,9.16,0.7
0.13,-0.02,1.06,-14.13,9.35,0.67
0.13,-0.02,1.06,-14.13,9.35,0.67
0.13,-0.02,1.06,-14.61,9.58,0.69
0.13,-0.02,1.06,-15.18,9.89,0.71
0.12,-0.03,1.05,-15.74,10.17,0.77
0.12,-0.03,1.05,-16.24,10.44,0.81
0.13,-0.04,1.05,-16.68,10.67,0.83
0.13,-0.04,1.05,-16.68,10.67,0.83
0.13,-0.04,1.04,-16.95,10.84,0.83
0.13,-0.04,1.05,-17.05,11.02,0.83
0.13,-0.04,1.05,-16.99,11.2,0.8
0.13,-0.04,1.05,-16.85,11.42,0.77
0.13,-0.04,1.06,-16.7,11.61,0.7
0.13,-0.04,1.06,-16.7,11.61,0.7
0.13,-0.03,1.06,-16.56,11.82,0.63
0.13,-0.02,1.06,-16.4,12.09,0.57
0.12,-0.02,1.07,-16.33,12.38,0.48
0.12,-0.01,1.07,-16.41,12.65,0.38
0.13,-0.02,1.07,-16.62,12.92,0.32
0.13,-0.02,1.07,-16.62,12.92,0.32
0.12,-0.02,1.06,-16.86,13.2,0.29
0.12,-0.02,1.06,-17.09,13.47,0.32
0.11,-0.02,1.06,-17.32,13.67,0.36
0.11,-0.02,1.06,-17.49,13.83,0.41
0.11,-0.02,1.07,-17.63,13.92,0.52
0.11,-0.02,1.07,-17.63,13.92,0.52
0.11,-0.02,1.06,-17.8,13.92,0.64
0.11,-0.02,1.06,-17.91,13.89,0.73
0.1,-0.02,1.06,-17.95,13.79,0.77
0.11,-0.02,1.06,-17.96,13.6,0.79
0.11,-0.01,1.06,-18.03,13.38,0.77
0.11,-0.01,1.06,-18.03,13.38,0.77
0.11,-0.01,1.06,-18.19,13.15,0.8
0.12,-0.01,1.06,-18.46,12.95,0.9
0.12,-0.01,1.06,-18.82,12.76,1.04
0.11,-0.01,1.06,-19.22,12.65,1.18
0.11,-0.02,1.06,-19.59,12.6,1.31
0.11,-0.02,1.06,-19.59,12.6,1.31
0.11,-0.03,1.06,-19.84,12.6,1.43
0.11,-0.03,1.05,-19.98,12.63,1.52
0.11,-0.03,1.05,-19.94,12.64,1.6
0.11,-0.03,1.05,-19.76,12.69,1.66
0.11,-0.03,1.05,-19.46,12.72,1.7
0.11,-0.03,1.05,-19.46,12.72,1.7
0.11,-0.03,1.05,-19.13,12.77,1.74
0.11,-0.03,1.05,-18.75,12.83,1.78
0.11,-0.03,1.05,-18.39,12.89,1.81
0.11,-0.03,1.04,-18.02,12.96,1.83
0.1,-0.02,1.05,-17.72,12.98,1.92
0.1,-0.02,1.05,-17.72,12.98,1.92
0.09,-0.02,1.05,-17.45,12.89,2.04
0.09,-0.01,1.04,-17.29,12.73,2.12
0.1,-0.01,1.05,-17.23,12.48,2.14
0.11,-0.01,1.05,-17.33,12.24,2.15
0.11,-0.02,1.04,-17.48,12.09,2.17
0.11,-0.02,1.04,-17.48,12.09,2.17
0.11,-0.02,1.04,-17.69,12.04,2.26
0.1,-0.02,1.04,-17.91,12.06,2.34
0.1,-0.03,1.03,-18.08,12.18,2.35
0.1,-0.03,1.03,-18.17,12.28,2.33
0.1,-0.03,1.02,-18.11,12.35,2.27
0.1,-0.03,1.02,-18.11,12.35,2.27
0.11,-0.03,1.03,-17.92,12.39,2.22
0.11,-0.03,1.03,-17.62,12.43,2.22
0.1,-0.03,1.03,-17.27,12.48,2.23
0.11,-0.03,1.03,-16.98,12.51,2.22
0.11,-0.03,1.03,-16.71,12.57,2.23
0.11,-0.03,1.03,-16.71,12.57,2.23
0.11,-0.02,1.04,-16.48,12.7,2.22
0.1,-0.02,1.05,-16.33,12.87,2.21
0.1,-0.02,1.05,-16.3,13.1,2.15
0.1,-0.02,1.04,-16.36,13.33,2.15
0.1,-0.02,1.04,-16.43,13.53,2.2
0.1,-0.02,1.04,-16.43,13.53,2.2
0.1,-0.03,1.04,-16.49,13.63,2.33
0.1,-0.04,1.03,-16.46,13.67,2.46
0.1,-0.04,1.03,-16.34,13.63,2.56
0.11,-0.04,1.03,-16.1,13.57,2.64
0.11,-0.04,1.03,-16.1,13.57,2.64
0.11,-0.04,1.04,-15.78,13.56,2.75
0.11,-0.04,1.04,-15.45,13.61,2.86
0.11,-0.04,1.05,-15.16,13.78,2.91
0.11,-0.04,1.05,-14.95,13.96,2.89
0.1,-0.04,1.05,-14.77,14.15,2.79
0.1,-0.04,1.05,-14.77,14.15,2.79
0.1,-0.04,1.04,-14.65,14.34,2.63
0.1,-0.04,1.04,-14.55,14.47,2.47
0.1,-0.03,1.04,-14.51,14.52,2.31
0.1,-0.03,1.04,-14.57,14.48,2.15
0.1,-0.03,1.04,-14.67,14.43,2.02
0.1,-0.03,1.04,-14.67,14.43,2.02
0.09,-0.03,1.04,-14.78,14.41,1.95
0.09,-0.04,1.04,-14.88,14.44,1.86
0.08,-0.04,1.04,-15.03,14.49,1.73
0.08,-0.05,1.03,-15.18,14.51,1.56
0.07,-0.05,1.03,-15.25,14.62,1.42
0.07,-0.05,1.03,-15.25,14.62,1.42
0.05,-0.07,1.04,-15.18,14.76,1.46
0.04,-0.08,1.04,-15.12,14.85,1.61
0.02,-0.09,1.05,-15.15,14.95,1.9
-0.0,-0.1,1.03,-15.18,15.18,2.07
-0.01,-0.12,1.02,-15.18,15.44,2.05
-0.01,-0.12,1.02,-15.18,15.44,2.05
-0.02,-0.13,1.03,-15.09,15.79,2.02
-0.04,-0.15,1.03,-14.99,16.3,1.99
-0.06,-0.17,1.03,-14.99,16.85,2.04
-0.08,-0.19,1.03,-15.2,17.39,2.31
-0.11,-0.22,1.04,-15.63,17.88,2.69
-0.11,-0.22,1.04,-15.63,17.88,2.69
-0.13,-0.24,1.04,-16.14,18.3,3.02
-0.14,-0.26,1.05,-16.77,18.69,3.13
-0.14,-0.28,1.06,-17.53,19.17,2.89
-0.13,-0.29,1.07,-18.45,19.91,2.29
-0.12,-0.31,1.09,-19.6,21.04,1.44
-0.12,-0.31,1.09,-19.6,21.04,1.44
-0.13,-0.33,1.1,-21.14,22.48,0.46
-0.14,-0.34,1.1,-23.18,24.09,-0.68
-0.14,-0.36,1.1,-25.7,25.73,-2.09
-0.13,-0.38,1.11,-28.62,27.36,-3.77
-0.11,-0.41,1.12,-31.82,29.04,-5.7
-0.11,-0.41,1.12,-31.82,29.04,-5.7
-0.11,-0.43,1.11,-35.15,30.86,-7.83
-0.11,-0.46,1.1,-38.46,32.64,-10.11
-0.1,-0.48,1.1,-41.54,34.26,-12.49
-0.09,-0.5,1.1,-44.31,35.76,-15.0
-0.09,-0.52,1.11,-46.76,37.19,-17.83
-0.09,-0.52,1.11,-46.76,37.19,-17.83
-0.08,-0.53,1.1,-48.81,38.65,-20.98
-0.07,-0.53,1.1,-50.44,40.04,-24.38
-0.06,-0.53,1.1,-51.74,41.32,-27.99
-0.03,-0.52,1.1,-52.82,42.43,-31.74
-0.01,-0.51,1.11,-53.77,43.39,-35.57
-0.01,-0.51,1.11,-53.77,43.39,-35.57
0.0,-0.51,1.11,-54.64,44.23,-39.44
0.01,-0.5,1.1,-55.4,44.95,-43.32
0.01,-0.49,1.1,-56.02,45.58,-47.21
0.02,-0.48,1.1,-56.5,46.07,-51.23
0.03,-0.46,1.1,-56.83,46.53,-55.39
0.03,-0.46,1.1,-56.83,46.53,-55.39
0.05,-0.44,1.1,-57.06,46.99,-59.61
0.06,-0.42,1.1,-57.21,47.41,-63.69
0.07,-0.4,1.09,-57.3,47.65,-67.55
0.07,-0.38,1.09,-57.24,47.63,-71.15
0.07,-0.35,1.08,-56.93,47.31,-74.5
0.07,-0.35,1.08,-56.93,47.31,-74.5
0.08,-0.32,1.08,-56.35,46.6,-77.63
0.09,-0.29,1.07,-55.61,45.4,-80.51
0.1,-0.25,1.08,-54.87,43.73,-83.15
0.12,-0.22,1.08,-54.22,41.7,-85.65
0.16,-0.19,1.09,-53.81,39.56,-88.06
0.16,-0.19,1.09,-53.81,39.56,-88.06
0.2,-0.17,1.1,-53.66,37.48,-90.24
0.22,-0.14,1.1,-53.82,35.58,-92.05
0.22,-0.12,1.11,-54.28,33.92,-93.63
0.24,-0.1,1.12,-54.94,32.62,-95.16
0.26,-0.09,1.12,-55.54,31.72,-96.65
0.26,-0.09,1.12,-55.54,31.72,-96.65
0.27,-0.07,1.12,-55.79,31.2,-97.89
0.28,-0.05,1.14,-55.57,30.84,-98.73
0.29,-0.02,1.16,-55.08,30.5,-99.16
0.3,-0.0,1.18,-54.61,29.98,-99.25
0.32,0.0,1.19,-54.28,29.21,-99.03
0.32,0.0,1.19,-54.28,29.21,-99.03
0.34,-0.01,1.19,-54.09,28.13,-98.53
0.36,-0.02,1.18,-53.89,26.72,-97.71
0.36,-0.03,1.18,-53.31,25.05,-96.68
0.36,-0.02,1.2,-52.2,23.29,-95.59
0.36,-0.0,1.22,-50.67,21.6,-94.68
0.36,-0.0,1.22,-50.67,21.6,-94.68
0.35,0.02,1.24,-48.98,20.03,-93.95
0.35,0.04,1.24,-47.34,18.32,-93.19
0.34,0.05,1.24,-45.72,16.29,-92.23
0.35,0.07,1.25,-44.24,13.78,-90.99
0.36,0.09,1.25,-43.11,10.79,-89.47
0.36,0.09,1.25,-43.11,10.79,-89.47
0.36,0.09,1.25,-42.26,7.49,-87.86
0.36,0.1,1.25,-41.29,4.17,-86.28
0.35,0.11,1.25,-39.92,1.04,-84.78
0.35,0.13,1.24,-38.18,-1.9,-83.35
0.36,0.16,1.23,-36.31,-4.73,-81.94
0.36,0.16,1.23,-36.31,-4.73,-81.94
0.37,0.17,1.22,-34.45,-7.45,-80.44
0.38,0.18,1.19,-32.6,-10.02,-78.75
0.37,0.18,1.17,-30.6,-12.46,-76.62
0.36,0.19,1.15,-28.02,-14.65,-74.08
0.36,0.21,1.14,-24.71,-16.42,-71.33
0.36,0.21,1.14,-24.71,-16.42,-71.33
0.35,0.24,1.13,-20.88,-17.77,-68.46
0.34,0.26,1.13,-16.71,-18.73,-65.75
0.32,0.3,1.13,-12.28,-19.32,-63.18
0.3,0.34,1.12,-7.84,-19.63,-60.71
0.27,0.38,1.11,-3.49,-19.84,-58.05
0.27,0.38,1.11,-3.49,-19.84,-58.05
0.25,0.43,1.11,0.75,-20.08,-55.16
0.24,0.47,1.13,4.88,-20.52,-51.97
0.22,0.51,1.14,8.8,-21.05,-48.24
0.19,0.56,1.15,12.38,-21.67,-43.83
0.17,0.61,1.17,15.39,-22.41,-38.98
0.17,0.61,1.17,15.39,-22.41,-38.98
0.16,0.65,1.17,17.38,-23.34,-33.95
0.15,0.67,1.16,18.11,-24.5,-28.8
0.15,0.67,1.14,17.66,-25.92,-23.5
0.15,0.66,1.12,16.26,-27.5,-17.9
0.15,0.65,1.09,14.15,-28.9,-12.01
0.15,0.65,1.09,14.15,-28.9,-12.01
0.14,0.64,1.06,11.6,-30.02,-6.31
0.15,0.61,1.03,9.14,-30.75,-1.34
0.17,0.56,1.01,7.46,-31.0,2.84
0.2,0.52,1.0,6.94,-30.62,6.71
0.21,0.49,0.99,7.62,-29.65,10.65
0.21,0.49,0.99,7.62,-29.65,10.65
0.2,0.47,0.99,9.24,-28.3,14.86
0.16,0.46,0.99,11.33,-26.8,19.37
0.11,0.45,0.99,13.45,-25.37,23.85
0.07,0.44,0.99,15.26,-24.27,28.06
0.03,0.42,0.99,16.49,-23.6,31.86
0.03,0.42,0.99,16.49,-23.6,31.86
0.01,0.41,0.98,16.81,-23.28,35.04
0.01,0.39,0.97,16.2,-23.08,37.36
0.03,0.36,0.97,14.95,-22.82,38.84
0.06,0.32,0.96,13.33,-22.44,39.87
0.1,0.29,0.94,11.5,-21.86,40.97
0.1,0.29,0.94,11.5,-21.86,40.97
0.11,0.27,0.94,9.71,-20.96,42.31
0.11,0.24,0.94,8.13,-19.71,43.76
0.09,0.22,0.93,6.84,-17.8,45.06
0.09,0.21,0.94,5.93,-15.19,45.95
0.09,0.19,0.96,5.32,-11.95,46.53
0.09,0.19,0.96,5.32,-11.95,46.53
0.11,0.17,1.0,4.76,-8.18,47.08
0.11,0.15,1.04,3.87,-3.96,47.75
0.11,0.11,1.06,2.51,0.7,48.52
0.08,0.06,1.07,0.79,5.67,49.4
0.03,-0.0,1.07,-1.03,10.49,50.43
0.03,-0.0,1.07,-1.03,10.49,50.43
-0.04,-0.05,1.05,-2.66,14.83,51.55
-0.1,-0.08,1.03,-3.8,18.36,52.52
-0.15,-0.09,1.02,-4.38,20.67,53.07
-0.17,-0.11,1.01,-4.52,21.68,52.89
-0.14,-0.14,1.0,-4.34,21.42,52.02
-0.14,-0.14,1.0,-4.34,21.42,52.02
-0.11,-0.17,1.01,-4.05,20.17,51.01
-0.08,-0.2,1.02,-3.66,18.66,50.1
-0.05,-0.24,1.03,-3.24,17.5,49.18
-0.06,-0.27,1.02,-2.76,16.99,48.21
-0.08,-0.29,1.02,-2.18,17.21,46.88
-0.08,-0.29,1.02,-2.18,17.21,46.88
-0.1,-0.31,1.0,-1.6,18.04,44.99
-0.1,-0.32,0.98,-1.15,19.3,42.58
-0.1,-0.33,0.96,-0.96,20.81,39.92
-0.1,-0.33,0.96,-1.1,22.53,37.29
-0.08,-0.33,0.95,-1.53,24.36,34.87
-0.08,-0.33,0.95,-1.53,24.36,34.87
-0.05,-0.34,0.97,-2.12,26.25,32.93
-0.04,-0.34,0.98,-2.79,28.21,31.82
-0.06,-0.34,0.98,-3.56,30.08,31.82
-0.1,-0.33,1.0,-4.53,31.55,32.79
-0.13,-0.33,1.01,-5.99,32.23,34.3
-0.13,-0.33,1.01,-5.99,32.23,34.3
-0.15,-0.35,1.01,-8.12,31.86,35.89
-0.15,-0.38,1.01,-10.83,30.44,37.43
-0.14,-0.41,1.02,-13.86,28.2,38.92
-0.15,-0.43,1.03,-16.93,25.56,40.14
-0.14,-0.44,1.02,-19.85,22.74,40.63
-0.14,-0.44,1.02,-19.85,22.74,40.63
-0.11,-0.45,1.01,-22.39,19.87,40.29
-0.06,-0.46,1.02,-24.51,17.14,39.32
-0.01,-0.45,1.02,-26.23,15.0,38.03
0.02,-0.45,1.02,-27.54,13.82,36.67
0.03,-0.44,1.02,-28.41,13.54,35.35
0.03,-0.44,1.02,-28.41,13.54,35.35
0.02,-0.43,1.01,-28.83,13.96,33.98
0.0,-0.41,1.0,-28.84,14.72,32.57
0.0,-0.39,1.0,-28.54,15.52,31.02
0.01,-0.37,0.99,-27.93,16.23,29.41
0.03,-0.36,1.0,-27.12,16.78,27.87
0.03,-0.36,1.0,-27.12,16.78,27.87
0.04,-0.34,1.0,-26.12,17.14,26.58
0.05,-0.33,1.01,-24.98,17.38,25.47
0.05,-0.31,1.02,-23.72,17.53,24.61
0.04,-0.3,1.03,-22.49,17.63,23.9
0.03,-0.29,1.04,-21.42,17.56,23.2
0.03,-0.29,1.04,-21.42,17.56,23.2
0.03,-0.28,1.05,-20.68,17.3,22.51
0.02,-0.28,1.05,-20.27,16.68,21.68
0.02,-0.27,1.05,-20.26,15.71,20.62
0.04,-0.28,1.03,-20.54,14.56,19.25
0.06,-0.29,1.02,-20.85,13.38,17.7
0.06,-0.29,1.02,-20.85,13.38,17.7
0.09,-0.3,1.01,-20.97,12.36,16.15
0.1,-0.29,0.99,-20.71,11.61,14.67
0.11,-0.28,0.98,-20.01,11.16,13.16
0.11,-0.26,0.98,-18.95,10.99,11.65
0.1,-0.24,0.97,-17.7,10.95,10.18
0.1,-0.24,0.97,-17.7,10.95,10.18
0.11,-0.21,0.97,-16.42,10.91,8.91
0.12,-0.19,0.98,-15.32,10.85,7.92
0.13,-0.18,0.99,-14.58,10.89,7.26
0.13,-0.17,1.0,-14.22,11.16,6.78
0.13,-0.16,0.99,-14.12,11.69,6.38
0.13,-0.16,0.99,-14.12,11.69,6.38
0.14,-0.17,1.01,-14.25,12.4,6.08
0.14,-0.17,1.03,-14.62,13.15,6.0
0.12,-0.17,1.05,-15.33,13.84,6.04
0.11,-0.17,1.05,-16.35,14.39,5.94
0.1,-0.18,1.05,-17.67,14.58,5.5
0.1,-0.18,1.05,-17.67,14.58,5.5
0.11,-0.18,1.04,-19.21,14.31,4.86
0.11,-0.19,1.04,-20.85,13.67,4.23
0.12,-0.19,1.03,-22.45,12.79,3.7
0.12,-0.2,1.03,-23.94,11.77,3.27
0.12,-0.2,1.02,-25.16,10.63,2.89
0.12,-0.2,1.02,-25.16,10.63,2.89
0.12,-0.2,1.02,-26.07,9.54,2.57
0.12,-0.19,1.02,-26.95,8.54,2.41
0.09,-0.19,0.99,-27.84,7.39,2.34
0.17,-0.24,0.97,-27.62,6.35,0.7
0.17,-0.24,0.99,-26.09,6.27,-0.11
0.17,-0.24,0.99,-26.09,6.27,-0.11
0.15,-0.18,1.03,-24.17,6.91,0.23
0.15,-0.14,1.02,-23.26,7.88,0.04
0.13,-0.17,0.96,-22.77,8.63,-0.05
0.15,-0.24,0.95,-20.1,9.82,-1.65
0.16,-0.22,1.01,-15.82,11.42,-4.04
0.16,-0.22,1.01,-15.82,11.42,-4.04
0.13,-0.14,1.06,-12.33,12.72,-5.03
0.09,-0.07,1.05,-10.76,13.75,-4.75
0.08,-0.08,1.03,-10.42,14.39,-4.53
0.1,-0.1,1.03,-10.1,14.54,-4.8
0.11,-0.11,1.05,-9.52,14.13,-5.25
0.11,-0.11,1.05,-9.52,14.13,-5.25
0.11,-0.09,1.07,-8.94,13.28,-5.65
0.09,-0.08,1.08,-8.71,12.27,-5.99
0.09,-0.08,1.08,-9.1,11.11,-6.14
0.1,-0.08,1.1,-10.16,9.84,-6.03
0.12,-0.07,1.1,-12.01,8.4,-5.7
0.12,-0.07,1.1,-12.01,8.4,-5.7
0.13,-0.06,1.1,-14.47,6.98,-5.03
0.13,-0.06,1.09,-17.24,5.84,-4.24
0.13,-0.07,1.07,-20.02,5.04,-3.55
0.12,-0.09,1.06,-22.29,4.7,-3.03
0.11,-0.09,1.07,-24.05,4.78,-2.86
0.11,-0.09,1.07,-24.05,4.78,-2.86
0.09,-0.09,1.06,-25.6,4.96,-2.98
0.08,-0.1,1.06,-26.76,5.23,-3.45
0.09,-0.11,1.06,-27.36,5.75,-4.12
0.08,-0.1,1.06,-27.67,6.53,-4.06
0.06,-0.08,1.05,-27.97,7.29,-2.98
0.06,-0.08,1.05,-27.97,7.29,-2.98
0.05,-0.08,1.02,-27.77,7.9,-1.87
0.08,-0.09,1.0,-26.55,8.2,-1.67
0.12,-0.11,1.01,-24.41,8.22,-1.82
0.12,-0.1,1.03,-21.76,8.27,-1.07
0.12,-0.1,1.03,-19.11,8.24,0.31
0.09,-0.08,1.02,-19.11,8.24,0.31
0.07,-0.07,1.02,-16.75,7.87,1.55
0.06,-0.07,1.02,-14.69,7.09,2.51
0.06,-0.07,1.03,-12.86,6.14,3.38
0.06,-0.07,1.04,-11.28,5.22,4.04
0.06,-0.07,1.04,-11.28,5.22,4.04
0.06,-0.06,1.04,-10.0,4.37,4.4
0.06,-0.04,1.06,-9.19,3.63,4.69
0.05,-0.02,1.06,-9.23,3.05,4.92
0.06,-0.01,1.05,-10.13,2.63,4.95
0.08,-0.02,1.04,-11.62,2.43,4.82
0.08,-0.02,1.04,-11.62,2.43,4.82
0.09,-0.04,1.02,-13.3,2.43,4.71
0.11,-0.05,1.0,-14.86,2.51,4.77
0.13,-0.07,0.98,-16.01,2.47,4.78
0.15,-0.08,0.99,-16.53,2.44,5.05
0.13,-0.07,1.0,-16.9,2.26,6.28
0.13,-0.07,1.0,-16.9,2.26,6.28
0.13,-0.08,0.98,-17.34,1.7,7.74
0.14,-0.09,0.98,-17.38,1.16,9.29
0.14,-0.11,0.99,-16.82,0.73,10.75
0.14,-0.11,1.01,-15.86,0.48,12.09
0.12,-0.11,1.03,-14.77,0.56,13.32
0.12,-0.11,1.03,-14.77,0.56,13.32
0.1,-0.12,1.04,-13.73,0.98,14.32
0.08,-0.13,1.03,-12.7,1.66,14.98
0.08,-0.16,1.02,-11.52,2.56,15.27
0.08,-0.17,1.02,-10.03,3.72,15.23
0.09,-0.17,1.02,-8.19,5.11,14.82
0.09,-0.17,1.02,-8.19,5.11,14.82
0.09,-0.16,1.03,-6.07,6.74,13.96
0.09,-0.15,1.04,-3.79,8.72,12.59
0.08,-0.14,1.04,-1.49,11.17,10.61
0.07,-0.12,1.04,0.65,13.99,7.88
0.07,-0.11,1.04,2.41,17.14,4.53
0.07,-0.11,1.04,2.41,17.14,4.53
0.08,-0.11,1.04,3.71,20.62,0.92
0.08,-0.11,1.02,4.64,24.43,-2.64
0.08,-0.1,0.99,5.32,28.39,-6.0
0.07,-0.09,0.96,5.98,32.11,-8.97
0.06,-0.06,0.92,6.7,35.04,-11.18
0.06,-0.06,0.92,6.7,35.04,-11.18
0.05,-0.01,0.9,7.32,36.75,-12.42
0.05,0.04,0.9,7.67,37.15,-12.67
0.07,0.08,0.91,7.64,36.49,-12.11
0.09,0.1,0.92,7.07,35.2,-10.94
0.11,0.11,0.93,5.96,33.62,-9.24
0.11,0.11,0.93,5.96,33.62,-9.24
0.12,0.11,0.96,4.45,32.13,-7.08
0.15,0.09,0.99,2.61,31.04,-4.38
0.15,0.07,1.03,0.27,30.6,-1.07
0.15,0.06,1.05,-2.63,30.98,2.57
0.14,0.04,1.07,-6.13,32.01,6.17
0.14,0.04,1.07,-6.13,32.01,6.17
0.13,-0.0,1.07,-10.15,33.46,9.35
0.12,-0.05,1.06,-14.24,35.14,12.03
0.11,-0.11,1.05,-17.76,37.04,14.18
0.11,-0.14,1.06,-20.26,39.01,15.69
0.1,-0.13,1.09,-22.25,40.8,16.66
0.1,-0.13,1.09,-22.25,40.8,16.66
0.08,-0.13,1.08,-25.01,41.86,17.18
0.1,-0.15,1.03,-27.73,42.25,17.32
0.06,-0.13,0.99,-29.53,42.14,18.24
0.08,-0.23,0.94,-29.53,40.86,18.11
0.06,-0.22,0.97,-26.44,39.12,18.31
0.06,-0.22,0.97,-26.44,39.12,18.31
0.06,-0.14,1.06,-22.9,36.52,18.77
0.06,-0.06,1.1,-21.25,33.48,19.91
0.08,-0.11,1.03,-20.91,30.61,21.22
0.09,-0.17,1.0,-19.43,28.17,22.21
0.11,-0.16,1.04,-17.5,25.56,22.47
0.11,-0.16,1.04,-17.5,25.56,22.47
0.15,-0.15,1.05,-16.24,22.8,22.73
0.15,-0.13,1.03,-14.99,20.59,23.94
0.15,-0.12,1.05,-13.69,18.95,24.52
0.18,-0.12,1.06,-12.92,17.69,23.82
0.2,-0.13,1.05,-12.49,16.95,23.28
0.2,-0.13,1.05,-12.49,16.95,23.28
0.19,-0.14,1.04,-12.01,16.88,23.46
0.18,-0.15,1.03,-11.4,17.03,23.71
0.18,-0.16,1.02,-10.5,17.15,23.73
0.16,-0.15,1.04,-9.46,17.22,23.76
0.13,-0.13,1.04,-8.63,17.23,23.78
0.13,-0.13,1.04,-8.63,17.23,23.78
0.12,-0.12,1.05,-8.39,17.05,23.63
0.12,-0.11,1.04,-8.75,16.6,23.3
0.11,-0.11,1.03,-9.44,15.96,22.85
0.12,-0.11,1.01,-10.17,15.01,22.24
0.14,-0.12,1.0,-10.85,13.67,21.65
0.14,-0.12,1.0,-10.85,13.67,21.65
0.16,-0.11,1.01,-11.53,12.03,21.36
0.19,-0.1,1.02,-12.3,10.38,21.33
0.21,-0.1,1.03,-13.31,8.88,21.29
0.22,-0.1,1.03,-14.57,7.68,21.11
0.22,-0.12,1.02,-15.8,6.82,20.79
0.22,-0.12,1.02,-15.8,6.82,20.79
0.22,-0.15,1.02,-16.82,6.25,20.53
0.21,-0.16,1.02,-17.5,6.0,20.28
0.21,-0.16,1.03,-17.98,6.07,20.03
0.19,-0.17,1.04,-18.46,6.49,19.75
0.18,-0.17,1.03,-18.91,7.17,19.2
0.18,-0.17,1.03,-18.91,7.17,19.2
0.16,-0.19,1.01,-19.04,7.96,18.21
0.17,-0.22,0.99,-18.46,8.68,16.97
0.18,-0.22,0.99,-17.11,9.26,15.9
0.19,-0.2,1.0,-15.18,9.68,15.06
0.19,-0.16,1.02,-13.06,10.0,14.22
0.19,-0.16,1.02,-13.06,10.0,14.22
0.19,-0.12,1.03,-11.12,10.22,13.3
0.2,-0.09,1.04,-9.65,10.27,12.37
0.22,-0.08,1.05,-8.67,10.27,11.55
0.24,-0.07,1.06,-8.1,10.36,10.97
0.24,-0.06,1.08,-7.95,10.71,10.72
0.24,-0.06,1.08,-7.95,10.71,10.72
0.21,-0.07,1.08,-8.33,11.29,10.73
0.19,-0.09,1.06,-9.13,11.88,10.8
0.18,-0.11,1.05,-9.92,12.43,10.71
0.17,-0.13,1.04,-10.3,12.99,10.42
0.15,-0.13,1.04,-10.17,13.54,9.92
0.15,-0.13,1.04,-10.17,13.54,9.92
0.14,-0.13,1.04,-9.73,14.01,9.31
