ax,ay,az,gx,gy,gz
0.24,-0.03,0.95,9.31,73.27,-8.85
0.22,-0.02,0.95,11.25,77.99,-9.66
0.16,0.0,0.95,13.4,82.74,-10.3
0.08,0.03,0.96,15.65,87.04,-10.83
0.01,0.06,0.97,17.74,90.36,-11.35
0.01,0.06,0.97,17.74,90.36,-11.35
-0.04,0.09,0.99,19.3,92.1,-12.06
-0.06,0.12,1.01,20.09,91.9,-12.9
-0.06,0.14,1.02,19.9,89.69,-13.57
-0.06,0.16,1.04,18.61,85.67,-13.71
-0.05,0.17,1.06,16.13,80.07,-13.34
-0.05,0.17,1.06,16.13,80.07,-13.34
-0.03,0.18,1.07,12.34,73.37,-12.74
-0.01,0.16,1.05,7.44,66.39,-12.0
0.01,0.12,1.03,2.03,59.63,-11.1
0.03,0.08,1.02,-3.39,53.37,-10.07
0.05,0.05,1.01,-8.42,47.92,-9.01
0.05,0.05,1.01,-8.42,47.92,-9.01
0.06,0.01,1.0,-12.67,43.54,-8.01
0.05,-0.02,0.98,-15.74,40.2,-7.06
0.03,-0.04,0.98,-17.53,37.7,-6.26
0.01,-0.04,0.97,-18.07,35.75,-5.63
-0.01,-0.04,0.96,-17.39,34.06,-5.18
-0.01,-0.04,0.96,-17.39,34.06,-5.18
-0.03,-0.04,0.96,-15.7,32.43,-4.89
-0.04,-0.02,0.97,-13.37,30.73,-4.87
-0.04,-0.01,0.98,-10.73,28.95,-5.11
-0.02,0.01,0.99,-8.02,27.06,-5.47
-0.0,0.02,1.0,-5.48,25.17,-5.9
-0.0,0.02,1.0,-5.48,25.17,-5.9
0.02,0.03,1.01,-3.3,23.64,-6.35
0.02,0.04,1.02,-1.45,22.71,-6.72
0.02,0.04,1.01,0.07,22.43,-6.93
0.02,0.04,1.01,1.33,22.62,-6.89
0.01,0.05,1.01,2.36,23.02,-6.59
0.01,0.05,1.01,2.36,23.02,-6.59
-0.01,0.05,1.01,3.24,23.49,-6.01
-0.03,0.06,1.01,4.12,23.85,-5.23
-0.05,0.07,1.02,4.97,24.03,-4.41
-0.06,0.07,1.02,5.64,23.79,-3.7
-0.07,0.08,1.03,5.99,23.14,-3.06
-0.07,0.08,1.03,5.99,23.14,-3.06
-0.07,0.09,1.03,5.91,22.08,-2.51
-0.06,0.09,1.03,5.32,20.55,-1.97
-0.06,0.08,1.02,4.32,18.66,-1.38
-0.06,0.06,1.02,3.08,16.5,-0.78
-0.06,0.04,1.01,1.83,14.16,-0.25
-0.06,0.04,1.01,1.83,14.16,-0.25
-0.05,0.02,1.0,0.8,11.62,0.28
-0.04,0.01,0.99,0.15,9.01,0.84
-0.03,0.01,0.99,-0.02,6.49,1.42
-0.02,0.0,1.0,0.26,4.21,1.97
-0.02,0.01,1.0,0.91,2.31,2.41
-0.02,0.01,1.0,0.91,2.31,2.41
-0.02,0.02,1.0,1.8,0.88,2.66
-0.01,0.02,1.01,2.72,-0.02,2.77
-0.01,0.03,1.01,3.47,-0.45,2.82
-0.0,0.04,1.01,3.93,-0.49,2.87
-0.01,0.04,1.01,4.11,-0.32,2.91
-0.01,0.04,1.01,4.11,-0.32,2.91
-0.01,0.03,1.0,4.11,0.01,2.98
-0.02,0.03,1.0,4.02,0.43,3.0
-0.03,0.03,1.0,3.95,0.9,2.95
-0.03,0.03,1.0,3.93,1.33,2.82
-0.03,0.03,0.99,3.91,1.69,2.61
-0.03,0.03,0.99,3.91,1.69,2.61
-0.03,0.03,0.99,3.93,2.07,2.28
-0.03,0.03,0.99,4.1,2.57,1.88
-0.03,0.03,0.99,4.46,3.1,1.48
-0.04,0.05,1.0,4.9,3.63,1.07
-0.04,0.06,1.01,5.3,4.1,0.71
-0.04,0.06,1.01,5.3,4.1,0.71
-0.05,0.08,1.02,5.45,4.41,0.45
-0.06,0.08,1.03,5.22,4.46,0.28
-0.06,0.09,1.03,4.55,4.28,0.2
-0.05,0.08,1.03,3.42,3.96,0.11
-0.03,0.07,1.02,2.01,3.7,-0.03
-0.03,0.07,1.02,2.01,3.7,-0.03
-0.02,0.05,1.01,0.54,3.67,-0.13
-0.01,0.03,1.0,-0.83,3.92,-0.06
-0.0,0.02,0.98,-1.98,4.35,0.09
0.0,0.01,0.97,-2.74,4.97,0.31
-0.01,0.0,0.97,-3.0,5.69,0.61
-0.01,0.0,0.97,-3.0,5.69,0.61
-0.03,0.0,0.97,-2.77,6.46,0.82
-0.05,0.01,0.98,-2.21,7.05,0.84
-0.05,0.02,0.99,-1.52,7.36,0.68
-0.05,0.03,0.99,-0.83,7.35,0.45
-0.05,0.04,1.0,-0.28,7.01,0.22
-0.05,0.04,1.0,-0.28,7.01,0.22
-0.04,0.04,1.0,-0.04,6.35,0.05
-0.03,0.05,1.0,-0.13,5.42,0.05
-0.03,0.04,1.0,-0.6,4.33,0.22
-0.02,0.03,0.99,-1.36,3.17,0.46
-0.01,0.02,0.99,-2.26,2.07,0.68
-0.01,0.02,0.99,-2.26,2.07,0.68
-0.01,0.01,0.98,-3.08,1.2,0.83
-0.01,-0.0,0.97,-3.6,0.61,0.91
-0.01,-0.0,0.97,-3.74,0.29,0.88
-0.02,0.01,0.97,-3.51,0.17,0.78
-0.03,0.02,0.97,-3.12,0.1,0.65
-0.03,0.02,0.97,-3.12,0.1,0.65
-0.03,0.02,0.98,-2.73,-0.03,0.54
-0.03,0.03,0.99,-2.44,-0.3,0.42
-0.04,0.04,0.99,-2.34,-0.7,0.28
-0.04,0.03,0.98,-2.42,-1.1,0.06
-0.04,0.03,0.98,-2.55,-1.47,-0.26
-0.04,0.03,0.98,-2.55,-1.47,-0.26
-0.03,0.03,0.97,-2.65,-1.79,-0.61
-0.03,0.03,0.97,-2.59,-2.02,-0.95
-0.03,0.04,0.97,-2.37,-2.12,-1.26
-0.03,0.03,0.98,-2.07,-2.07,-1.56
-0.04,0.04,0.98,-1.64,-1.89,-1.85
-0.04,0.04,0.98,-1.64,-1.89,-1.85
-0.04,0.04,0.98,-1.05,-1.6,-2.18
-0.05,0.05,0.98,-0.35,-1.26,-2.51
-0.05,0.06,0.99,0.31,-0.88,-2.82
-0.05,0.07,1.0,0.88,-0.49,-3.07
-0.05,0.07,1.0,1.2,-0.11,-3.25
-0.05,0.08,1.0,1.2,-0.11,-3.25
-0.05,0.09,1.0,1.28,0.26,-3.35
-0.05,0.09,1.01,1.13,0.64,-3.38
-0.05,0.09,1.0,0.81,0.99,-3.34
-0.06,0.08,1.0,0.34,1.33,-3.28
-0.06,0.08,1.0,-0.15,1.67,-3.15
-0.05,0.08,1.0,-0.15,1.67,-3.15
-0.05,0.07,1.0,-0.58,1.95,-2.93
-0.05,0.06,0.99,-0.86,2.1,-2.59
-0.05,0.06,0.99,-0.92,2.1,-2.18
-0.05,0.05,0.99,-0.67,2.01,-1.77
-0.05,0.05,0.99,-0.67,2.01,-1.77
-0.05,0.05,0.99,-0.14,1.93,-1.37
-0.05,0.05,1.0,0.62,1.81,-1.0
-0.05,0.06,1.0,1.39,1.7,-0.67
-0.04,0.07,1.0,2.0,1.59,-0.35
-0.03,0.07,1.01,2.31,1.52,-0.03
-0.03,0.07,1.01,2.31,1.52,-0.03
-0.02,0.07,1.01,2.34,1.57,0.32
-0.02,0.07,1.01,2.15,1.73,0.7
-0.03,0.06,1.01,1.83,2.01,1.16
-0.03,0.05,1.01,1.39,2.36,1.6
-0.03,0.04,1.01,0.89,2.73,1.95
-0.03,0.04,1.01,0.89,2.73,1.95
-0.03,0.03,1.01,0.46,3.06,2.22
-0.03,0.02,1.01,0.18,3.32,2.48
-0.03,0.01,1.0,0.16,3.5,2.75
-0.03,0.01,1.0,0.46,3.59,3.0
-0.03,0.02,1.0,1.04,3.57,3.17
-0.03,0.02,1.0,1.04,3.57,3.17
-0.03,0.02,1.01,1.76,3.48,3.21
-0.03,0.04,1.02,2.41,3.35,3.13
-0.03,0.05,1.02,2.81,3.12,3.0
-0.03,0.05,1.03,2.85,2.84,2.83
-0.03,0.06,1.04,2.49,2.49,2.61
-0.03,0.06,1.04,2.49,2.49,2.61
-0.03,0.05,1.04,1.72,2.12,2.4
-0.03,0.05,1.03,0.62,1.71,2.2
-0.02,0.04,1.03,-0.76,1.32,1.98
-0.01,0.02,1.03,-2.2,1.06,1.75
-0.02,0.01,1.01,-3.5,1.02,1.49
-0.02,0.01,1.01,-3.5,1.02,1.49
-0.02,-0.01,1.01,-4.46,1.15,1.22
-0.02,-0.01,1.01,-5.01,1.38,0.97
-0.02,-0.02,1.0,-5.18,1.67,0.71
-0.03,-0.02,0.99,-4.95,1.86,0.45
-0.04,-0.01,0.99,-4.28,1.93,0.17
-0.04,-0.01,0.99,-4.28,1.93,0.17
-0.05,-0.0,0.99,-3.29,1.83,-0.13
-0.05,0.02,1.0,-2.11,1.45,-0.39
-0.05,0.03,1.0,-0.98,0.83,-0.63
-0.06,0.05,1.01,-0.02,-0.02,-0.87
-0.05,0.06,1.01,0.57,-1.06,-1.12
-0.05,0.06,1.01,0.57,-1.06,-1.12
-0.05,0.07,1.02,0.71,-2.21,-1.32
-0.04,0.07,1.02,0.43,-3.32,-1.51
-0.03,0.07,1.01,-0.2,-4.28,-1.67
-0.03,0.06,1.01,-1.0,-4.99,-1.8
-0.02,0.05,1.0,-1.79,-5.31,-1.99
-0.02,0.05,1.0,-1.79,-5.31,-1.99
-0.02,0.05,0.99,-2.45,-5.25,-2.19
-0.03,0.04,0.98,-2.91,-4.81,-2.41
-0.03,0.05,0.98,-3.13,-4.18,-2.63
-0.03,0.05,0.97,-3.12,-3.36,-2.86
-0.04,0.05,0.97,-2.89,-2.47,-3.0
-0.04,0.05,0.97,-2.89,-2.47,-3.0
-0.04,0.05,0.97,-2.47,-1.6,-3.0
-0.05,0.05,0.97,-1.93,-0.81,-2.89
-0.05,0.05,0.97,-1.27,-0.18,-2.71
-0.06,0.05,0.97,-0.46,0.3,-2.45
-0.06,0.06,0.98,0.47,0.61,-2.14
-0.06,0.06,0.98,0.47,0.61,-2.14
-0.07,0.07,0.99,1.41,0.71,-1.8
-0.07,0.08,0.99,2.26,0.61,-1.45
-0.08,0.09,1.0,2.89,0.36,-1.15
-0.08,0.09,1.0,3.22,0.02,-0.87
-0.07,0.09,1.0,3.25,-0.43,-0.64
-0.07,0.09,1.0,3.25,-0.43,-0.64
-0.06,0.09,1.0,2.95,-0.9,-0.45
-0.05,0.09,1.0,2.36,-1.28,-0.2
-0.04,0.08,0.98,1.59,-1.53,0.1
-0.03,0.07,0.98,0.7,-1.64,0.42
-0.02,0.05,0.97,-0.19,-1.54,0.78
-0.02,0.05,0.97,-0.19,-1.54,0.78
-0.02,0.04,0.97,-0.97,-1.19,1.13
-0.02,0.03,0.96,-1.52,-0.67,1.49
-0.02,0.02,0.96,-1.79,-0.07,1.84
-0.02,0.02,0.95,-1.78,0.56,2.18
-0.03,0.01,0.95,-1.49,1.13,2.45
-0.03,0.01,0.95,-1.49,1.13,2.45
-0.03,0.02,0.96,-0.99,1.54,2.65
-0.03,0.02,0.96,-0.39,1.77,2.77
-0.03,0.03,0.97,0.28,1.85,2.88
-0.03,0.03,0.97,0.87,1.7,2.97
-0.02,0.04,0.98,1.23,1.43,3.08
-0.02,0.04,0.98,1.23,1.43,3.08
-0.02,0.03,0.98,1.33,1.11,3.18
-0.01,0.02,0.99,1.25,0.86,3.26
-0.01,0.01,0.99,1.06,0.77,3.25
-0.01,0.01,0.99,0.85,0.92,3.13
-0.02,0.0,0.99,0.69,1.24,2.87
-0.02,0.0,0.99,0.69,1.24,2.87
-0.03,0.0,1.0,0.61,1.64,2.45
-0.03,0.01,1.0,0.59,2.06,1.87
-0.04,0.02,1.01,0.57,2.49,1.17
-0.04,0.03,1.01,0.46,2.87,0.45
-0.04,0.04,1.01,0.19,3.15,-0.23
-0.04,0.04,1.01,0.19,3.15,-0.23
-0.04,0.04,1.01,-0.28,3.33,-0.82
-0.04,0.04,1.01,-0.91,3.31,-1.26
-0.04,0.03,1.0,-1.61,3.11,-1.48
-0.04,0.02,1.0,-2.18,2.7,-1.53
-0.04,0.01,0.99,-2.44,2.12,-1.47
-0.04,0.01,0.99,-2.44,2.12,-1.47
-0.03,0.01,0.99,-2.3,1.52,-1.47
-0.03,0.01,0.99,-1.75,0.97,-1.57
-0.03,0.02,0.99,-0.85,0.56,-1.73
-0.02,0.04,0.99,0.2,0.32,-1.9
-0.02,0.05,1.0,1.23,0.26,-2.02
-0.02,0.05,1.0,1.23,0.26,-2.02
-0.02,0.07,1.01,2.07,0.45,-2.11
-0.03,0.08,1.01,2.63,0.8,-2.19
-0.03,0.09,1.02,2.85,1.32,-2.19
-0.03,0.09,1.02,2.71,1.88,-2.06
-0.04,0.09,1.02,2.21,2.39,-1.83
-0.04,0.09,1.02,2.21,2.39,-1.83
-0.04,0.08,1.03,1.36,2.77,-1.54
-0.05,0.07,1.02,0.35,3.02,-1.22
-0.05,0.05,1.02,-0.57,3.09,-0.87
-0.05,0.04,1.01,-1.3,2.99,-0.46
-0.05,0.03,1.01,-1.76,2.7,0.08
-0.05,0.03,1.01,-1.76,2.7,0.08
-0.05,0.02,1.01,-1.95,2.28,0.74
-0.05,0.01,1.01,-1.92,1.75,1.42
-0.05,-0.0,1.01,-1.64,1.23,2.1
-0.05,-0.01,1.01,-1.15,0.72,2.71
-0.05,-0.02,1.01,-0.49,0.25,3.27
-0.05,-0.02,1.01,-0.49,0.25,3.27
-0.05,-0.03,1.02,0.28,-0.18,3.73
-0.05,-0.05,1.02,1.08,-0.49,4.13
-0.05,-0.06,1.02,1.84,-0.76,4.47
-0.05,-0.07,1.02,2.52,-0.96,4.77
-0.05,-0.08,1.03,3.03,-1.13,5.01
-0.05,-0.08,1.03,3.03,-1.13,5.01
-0.04,-0.09,1.03,3.29,-1.25,5.15
-0.03,-0.11,1.04,3.25,-1.29,5.21
-0.01,-0.13,1.04,2.86,-1.3,5.23
0.01,-0.16,1.05,2.23,-1.18,5.25
0.03,-0.2,1.06,1.39,-0.92,5.25
0.03,-0.2,1.06,1.39,-0.92,5.25
0.04,-0.24,1.07,0.43,-0.46,5.28
0.05,-0.29,1.07,-0.52,0.18,5.35
0.06,-0.32,1.05,-1.25,0.98,5.26
0.05,-0.35,1.03,-1.53,1.86,4.95
0.05,-0.37,1.01,-1.08,2.68,4.37
0.05,-0.37,1.01,-1.08,2.68,4.37
0.05,-0.37,1.0,0.14,3.42,3.54
0.05,-0.38,0.99,2.01,4.09,2.46
0.07,-0.37,0.98,4.39,4.72,1.15
0.09,-0.38,0.98,7.05,5.4,-0.15
0.11,-0.39,1.0,9.79,6.37,-1.46
0.11,-0.39,1.0,9.79,6.37,-1.46
0.13,-0.42,1.02,12.48,7.94,-2.95
0.15,-0.44,1.04,15.23,10.39,-4.73
0.15,-0.47,1.05,18.27,13.82,-6.8
0.13,-0.49,1.06,21.75,18.14,-9.23
0.09,-0.5,1.06,25.77,23.06,-12.16
0.09,-0.5,1.06,25.77,23.06,-12.16
0.04,-0.5,1.05,30.46,28.21,-15.73
0.0,-0.49,1.04,35.83,33.2,-20.05
-0.03,-0.47,1.03,41.78,37.69,-25.07
-0.04,-0.44,1.05,48.1,41.59,-30.62
-0.03,-0.42,1.09,54.4,45.0,-36.44
-0.03,-0.42,1.09,54.4,45.0,-36.44
-0.01,-0.4,1.12,60.25,48.07,-42.32
0.01,-0.39,1.15,65.37,50.88,-48.18
0.01,-0.39,1.17,69.73,53.65,-53.93
-0.01,-0.38,1.16,73.44,56.4,-59.46
-0.05,-0.37,1.16,76.6,58.96,-64.78
-0.05,-0.37,1.16,76.6,58.96,-64.78
-0.13,-0.31,1.16,79.57,61.33,-69.98
-0.23,-0.24,1.14,82.75,63.43,-75.36
-0.32,-0.16,1.14,86.11,64.75,-81.07
-0.39,-0.07,1.16,89.22,64.88,-87.03
-0.42,0.01,1.18,91.86,63.73,-92.98
-0.42,0.01,1.18,91.86,63.73,-92.98
-0.45,0.11,1.23,93.94,61.2,-98.52
-0.47,0.21,1.27,94.82,57.31,-103.51
-0.49,0.31,1.28,93.49,51.64,-107.66
-0.51,0.4,1.26,89.35,44.04,-110.71
-0.53,0.46,1.2,82.17,34.4,-112.68
-0.53,0.46,1.2,82.17,34.4,-112.68
-0.53,0.5,1.12,71.88,22.62,-114.02
-0.51,0.5,1.02,58.97,9.07,-115.23
-0.46,0.47,0.92,44.72,-5.37,-116.53
-0.38,0.44,0.86,30.46,-19.68,-117.85
-0.3,0.42,0.83,17.0,-32.54,-119.11
-0.3,0.42,0.83,17.0,-32.54,-119.11
-0.24,0.43,0.8,4.88,-42.67,-120.37
-0.21,0.44,0.77,-5.53,-49.24,-121.66
-0.18,0.44,0.73,-14.41,-52.36,-122.86
-0.18,0.46,0.71,-22.17,-52.4,-123.74
-0.19,0.48,0.72,-28.86,-49.57,-124.19
-0.19,0.48,0.72,-28.86,-49.57,-124.19
-0.23,0.51,0.71,-34.29,-44.13,-124.14
-0.27,0.53,0.7,-38.68,-36.94,-123.58
-0.3,0.55,0.69,-42.5,-29.09,-122.3
-0.31,0.56,0.69,-45.97,-21.42,-119.99
-0.32,0.56,0.7,-49.17,-14.38,-116.44
-0.32,0.56,0.7,-49.17,-14.38,-116.44
-0.31,0.55,0.71,-52.11,-8.22,-111.58
-0.3,0.52,0.72,-54.7,-2.91,-105.43
-0.3,0.49,0.73,-56.89,1.59,-98.18
-0.28,0.45,0.74,-58.53,5.47,-90.14
-0.27,0.4,0.74,-59.35,8.93,-81.6
-0.27,0.4,0.74,-59.35,8.93,-81.6
-0.26,0.37,0.73,-59.22,12.25,-72.91
-0.27,0.34,0.72,-58.01,15.66,-64.43
-0.28,0.32,0.71,-55.62,19.15,-56.52
-0.31,0.3,0.71,-51.99,22.8,-49.5
-0.34,0.29,0.73,-47.11,26.6,-43.59
-0.34,0.29,0.73,-47.11,26.6,-43.59
-0.36,0.29,0.76,-41.18,30.52,-39.04
-0.38,0.3,0.78,-34.58,34.35,-35.95
-0.38,0.31,0.81,-27.83,37.75,-33.95
-0.4,0.33,0.84,-21.47,40.27,-32.63
-0.42,0.35,0.87,-15.95,41.63,-31.9
-0.42,0.35,0.87,-15.95,41.63,-31.9
-0.43,0.38,0.9,-11.64,41.66,-31.75
-0.45,0.4,0.93,-8.8,40.24,-32.08
-0.45,0.43,0.97,-7.72,37.23,-32.76
-0.43,0.46,1.04,-9.22,32.73,-33.79
-0.35,0.42,1.07,-14.05,26.66,-34.85
-0.35,0.42,1.07,-14.05,26.66,-34.85
-0.31,0.4,1.07,-21.27,20.05,-34.71
-0.28,0.35,1.1,-29.88,13.4,-34.63
-0.25,0.3,1.09,-39.55,7.65,-35.31
-0.25,0.2,1.04,-49.68,2.38,-34.75
-0.29,0.16,0.98,-57.61,-1.41,-33.29
-0.29,0.16,0.98,-57.61,-1.41,-33.29
-0.3,0.15,0.97,-63.47,-3.91,-33.73
-0.26,0.14,0.98,-67.83,-5.96,-35.45
-0.24,0.16,1.0,-71.26,-7.47,-36.08
-0.25,0.17,1.01,-74.98,-8.78,-35.89
-0.22,0.15,1.0,-78.77,-10.11,-35.56
-0.22,0.15,1.0,-78.77,-10.11,-35.56
-0.19,0.12,1.0,-81.88,-11.02,-34.65
-0.18,0.1,0.99,-84.08,-11.39,-32.86
-0.2,0.1,0.98,-85.4,-11.37,-30.31
-0.23,0.08,0.95,-85.47,-11.17,-27.77
-0.24,0.03,0.9,-83.35,-10.85,-25.99
-0.24,0.03,0.9,-83.35,-10.85,-25.99
-0.24,-0.02,0.85,-78.3,-10.14,-24.14
-0.25,-0.02,0.86,-70.33,-9.38,-21.47
-0.25,0.02,0.91,-59.91,-8.47,-18.87
-0.24,0.06,0.94,-48.07,-7.16,-17.03
-0.21,0.09,0.97,-35.78,-5.61,-15.4
-0.21,0.09,0.97,-35.78,-5.61,-15.4
-0.2,0.11,1.0,-23.84,-3.93,-13.31
-0.2,0.15,1.05,-12.83,-2.13,-10.84
-0.2,0.19,1.08,-3.34,-0.3,-8.11
-0.2,0.23,1.08,4.24,1.43,-5.13
-0.21,0.27,1.08,9.85,2.89,-1.97
-0.21,0.27,1.08,9.85,2.89,-1.97
-0.23,0.3,1.08,13.61,3.9,1.22
-0.23,0.32,1.08,15.87,4.38,4.35
-0.22,0.33,1.08,16.97,4.34,7.46
-0.22,0.35,1.08,17.16,3.96,10.62
-0.23,0.37,1.09,16.5,3.4,13.86
-0.23,0.37,1.09,16.5,3.4,13.86
-0.24,0.39,1.1,14.95,2.61,17.03
-0.25,0.39,1.11,12.43,1.56,20.08
-0.26,0.38,1.1,8.99,0.32,23.01
-0.28,0.36,1.09,4.91,-1.02,25.69
-0.27,0.33,1.07,0.64,-2.22,27.84
-0.27,0.33,1.07,0.64,-2.22,27.84
-0.26,0.28,1.04,-3.3,-3.16,29.66
-0.23,0.25,1.02,-6.42,-3.81,31.58
-0.22,0.23,1.0,-8.58,-4.09,33.85
-0.22,0.22,1.0,-9.77,-3.85,36.52
-0.23,0.22,1.01,-10.14,-3.28,39.51
-0.23,0.22,1.01,-10.14,-3.28,39.51
-0.23,0.22,1.01,-10.04,-2.57,42.7
-0.24,0.21,1.01,-9.67,-1.77,46.09
-0.24,0.2,1.01,-9.07,-1.03,49.66
-0.24,0.19,1.01,-8.29,-0.32,53.44
-0.25,0.18,1.0,-7.38,0.3,57.33
-0.25,0.18,1.0,-7.38,0.3,57.33
-0.26,0.16,1.0,-6.32,0.88,61.12
-0.28,0.15,1.01,-5.14,1.56,64.6
-0.29,0.13,1.0,-3.84,2.41,67.63
-0.3,0.12,0.99,-2.44,3.28,70.28
-0.3,0.11,0.99,-0.87,4.17,72.48
-0.3,0.11,0.99,-0.87,4.17,72.48
-0.31,0.1,1.0,0.87,5.11,74.28
-0.32,0.1,1.01,2.64,6.09,75.7
-0.32,0.11,1.01,4.13,7.1,76.79
-0.31,0.11,1.02,4.9,8.29,77.56
-0.29,0.11,1.03,4.77,9.48,77.89
-0.29,0.11,1.03,4.77,9.48,77.89
-0.27,0.09,1.0,3.52,11.29,77.89
-0.27,0.07,0.97,1.51,13.8,77.94
-0.26,0.04,0.95,-0.65,16.72,78.18
-0.26,0.03,0.93,-2.68,20.14,78.59
-0.26,0.01,0.93,-4.35,23.97,79.16
-0.26,0.01,0.93,-4.35,23.97,79.16
-0.27,-0.01,0.92,-5.63,28.06,79.88
-0.27,-0.03,0.9,-6.6,32.19,80.85
-0.28,-0.06,0.89,-7.3,36.06,82.17
-0.3,-0.07,0.88,-7.65,39.51,83.79
-0.3,-0.07,0.88,-7.68,42.36,85.58
-0.32,-0.1,0.89,-7.68,42.36,85.58
-0.36,-0.09,0.87,-7.68,44.35,87.69
-0.4,-0.07,0.87,-7.67,45.19,89.6
-0.4,-0.1,0.86,-7.71,45.16,90.27
-0.38,-0.15,0.82,-6.91,44.93,90.16
-0.38,-0.15,0.82,-5.3,44.96,90.12
-0.38,-0.13,0.85,-5.3,44.96,90.12
-0.39,-0.07,0.9,-4.81,44.96,89.18
-0.37,-0.03,0.92,-5.78,44.95,87.29
-0.38,-0.05,0.92,-7.97,45.24,85.39
-0.41,-0.06,0.94,-11.2,45.54,83.87
-0.41,-0.06,0.94,-11.2,45.54,83.87
-0.44,-0.09,0.93,-15.35,45.75,82.04
-0.45,-0.12,0.91,-19.81,45.95,79.83
-0.46,-0.14,0.91,-24.39,45.95,77.56
-0.46,-0.16,0.9,-29.12,45.54,75.31
-0.45,-0.18,0.9,-34.14,44.64,73.06
-0.45,-0.18,0.9,-34.14,44.64,73.06
-0.44,-0.2,0.89,-39.41,43.29,70.77
-0.42,-0.22,0.87,-44.66,41.74,68.64
-0.41,-0.25,0.85,-49.6,40.01,66.88
-0.4,-0.29,0.82,-53.77,38.01,65.48
-0.38,-0.32,0.81,-56.87,36.03,64.27
-0.38,-0.32,0.81,-56.87,36.03,64.27
-0.38,-0.35,0.8,-58.9,34.35,63.13
-0.38,-0.37,0.8,-59.84,32.71,61.89
-0.37,-0.4,0.8,-59.63,31.21,60.49
-0.37,-0.41,0.8,-58.33,29.81,59.2
-0.37,-0.41,0.8,-55.99,28.52,58.23
-0.37,-0.41,0.8,-55.99,28.52,58.23
-0.39,-0.41,0.8,-52.58,27.21,57.54
-0.42,-0.4,0.79,-48.2,25.69,56.94
-0.44,-0.39,0.8,-42.9,23.94,56.21
-0.46,-0.37,0.81,-37.13,22.01,55.18
-0.47,-0.34,0.83,-31.36,19.92,53.81
-0.47,-0.34,0.83,-31.36,19.92,53.81
-0.47,-0.31,0.84,-25.98,17.76,52.08
-0.45,-0.29,0.86,-21.25,15.67,50.08
-0.43,-0.27,0.87,-17.46,13.87,47.99
-0.41,-0.25,0.88,-14.75,12.65,45.97
-0.39,-0.25,0.88,-13.15,12.24,44.06
-0.39,-0.25,0.88,-13.15,12.24,44.06
-0.37,-0.25,0.88,-12.61,12.65,42.33
-0.37,-0.26,0.86,-12.86,13.73,40.81
-0.37,-0.27,0.84,-13.44,15.42,39.37
-0.38,-0.28,0.83,-13.9,17.62,37.95
-0.38,-0.29,0.81,-13.96,20.17,36.5
-0.38,-0.29,0.81,-13.96,20.17,36.5
-0.37,-0.3,0.79,-13.47,22.85,35.16
-0.37,-0.3,0.79,-12.23,25.5,34.02
-0.38,-0.3,0.78,-10.22,28.02,33.09
-0.4,-0.29,0.79,-7.39,30.25,32.3
-0.43,-0.27,0.81,-3.92,32.14,31.47
-0.43,-0.27,0.81,-3.92,32.14,31.47
-0.45,-0.24,0.83,-0.18,33.58,30.44
-0.46,-0.21,0.85,3.36,34.68,29.03
-0.46,-0.18,0.87,6.3,35.69,27.1
-0.46,-0.15,0.89,8.2,36.96,24.53
-0.44,-0.14,0.89,8.8,38.66,21.47
-0.44,-0.14,0.89,8.8,38.66,21.47
-0.42,-0.12,0.91,8.16,40.74,18.22
-0.41,-0.11,0.92,6.41,43.34,14.9
-0.4,-0.1,0.92,3.55,46.74,11.65
-0.41,-0.11,0.9,-0.31,50.72,8.54
-0.42,-0.13,0.89,-4.79,54.93,5.7
-0.42,-0.13,0.89,-4.79,54.93,5.7
-0.43,-0.15,0.88,-9.42,59.11,3.12
-0.45,-0.18,0.86,-13.81,63.22,0.74
-0.47,-0.2,0.84,-17.59,67.31,-1.43
-0.48,-0.22,0.81,-20.47,71.19,-3.51
