ax,ay,az,gx,gy,gz
0.1,0.07,0.95,4.44,6.56,-1.25
0.11,0.07,0.96,3.99,6.69,-1.07
0.1,0.07,0.96,3.8,6.64,-0.81
0.11,0.08,0.96,3.72,6.4,-0.48
0.12,0.08,0.97,3.67,5.97,-0.08
0.13,0.07,0.97,3.63,5.49,0.42
0.13,0.07,0.97,3.63,5.49,0.42
0.13,0.07,0.98,3.59,5.02,1.06
0.13,0.07,0.98,3.59,4.54,1.82
0.14,0.07,0.98,3.59,4.09,2.57
0.14,0.06,0.98,3.56,3.76,3.22
0.15,0.06,0.99,3.53,3.61,3.74
0.15,0.06,0.99,3.53,3.61,3.74
0.14,0.06,1.0,3.53,3.7,4.13
0.13,0.06,1.0,3.5,3.99,4.43
0.12,0.06,1.0,3.38,4.35,4.58
0.12,0.06,1.01,3.15,4.7,4.57
0.12,0.06,1.01,2.89,5.05,4.47
0.12,0.06,1.01,2.89,5.05,4.47
0.11,0.06,1.01,2.62,5.3,4.33
0.1,0.06,1.01,2.33,5.41,4.15
0.1,0.06,1.0,1.99,5.37,3.94
0.1,0.06,1.0,1.68,5.18,3.68
0.1,0.06,1.0,1.5,4.92,3.35
0.09,0.06,1.0,1.5,4.92,3.35
0.09,0.06,1.0,1.47,4.6,3.04
0.09,0.06,1.01,1.53,4.27,2.75
0.1,0.06,1.01,1.65,3.94,2.59
0.09,0.07,1.02,1.81,3.67,2.53
0.09,0.07,1.02,1.99,3.52,2.5
0.07,0.07,1.02,1.99,3.52,2.5
0.06,0.07,1.02,2.11,3.29,2.49
0.06,0.08,1.01,2.11,2.86,2.5
0.07,0.08,1.02,2.07,2.22,2.58
0.07,0.07,1.01,2.01,1.43,2.73
0.07,0.07,1.01,2.01,1.43,2.73
0.07,0.07,1.01,1.95,0.61,2.93
0.08,0.07,1.0,1.87,-0.23,3.2
0.08,0.06,0.99,1.83,-1.05,3.51
0.09,0.06,0.99,1.93,-1.8,3.86
0.1,0.06,0.99,2.18,-2.32,4.17
0.1,0.06,0.99,2.18,-2.32,4.17
0.1,0.06,0.99,2.56,-2.56,4.46
0.1,0.06,0.98,3.01,-2.61,4.74
0.1,0.06,0.98,3.54,-2.45,5.0
0.1,0.06,0.97,4.16,-2.01,5.23
0.1,0.06,0.97,4.85,-1.43,5.48
0.1,0.06,0.97,4.85,-1.43,5.48
0.1,0.06,0.97,5.57,-0.77,5.73
0.09,0.06,0.97,6.3,-0.03,5.9
0.09,0.05,0.97,7.08,0.82,6.03
0.08,0.04,0.96,8.03,1.71,6.16
0.08,0.03,0.95,9.23,2.57,6.32
0.08,0.03,0.95,9.23,2.57,6.32
0.09,0.02,0.94,10.79,3.41,6.57
0.09,0.01,0.94,12.83,4.25,6.92
0.09,0.01,0.93,15.37,5.05,7.39
0.06,0.04,0.93,18.42,5.78,7.96
0.02,0.09,0.95,21.68,6.11,8.56
0.02,0.09,0.95,21.68,6.11,8.56
-0.02,0.17,0.99,24.51,5.7,9.12
-0.07,0.25,1.03,26.36,4.44,9.57
-0.12,0.35,1.07,26.7,2.16,9.73
-0.18,0.45,1.13,24.69,-1.91,9.66
-0.24,0.55,1.2,18.87,-8.21,9.19
-0.24,0.55,1.2,18.87,-8.21,9.19
-0.26,0.61,1.22,7.26,-16.9,7.87
-0.21,0.58,1.14,-11.21,-28.03,5.23
-0.1,0.43,1.04,-35.47,-40.9,1.48
0.04,0.22,1.0,-62.45,-54.45,-2.59
0.2,0.01,1.0,-89.16,-66.65,-6.42
0.2,0.01,1.0,-89.16,-66.65,-6.42
0.38,-0.22,1.02,-113.09,-74.9,-9.9
0.51,-0.41,0.85,-130.6,-76.25,-12.97
0.54,-0.6,0.62,-139.48,-71.38,-15.76
0.51,-0.76,0.53,-140.04,-63.59,-17.54
0.46,-0.85,0.53,-132.29,-54.0,-17.74
0.46,-0.85,0.53,-132.29,-54.0,-17.74
0.39,-0.86,0.58,-116.61,-42.44,-17.08
0.35,-0.85,0.58,-94.54,-29.07,-16.81
0.29,-0.77,0.6,-68.21,-15.82,-16.56
0.22,-0.61,0.66,-39.29,-3.6,-15.66
0.11,-0.42,0.75,-9.41,7.37,-14.57
0.11,-0.42,0.75,-9.41,7.37,-14.57
0.02,-0.24,0.84,19.3,15.98,-13.72
-0.06,-0.08,0.96,45.11,21.6,-13.41
-0.12,0.07,1.08,66.87,24.39,-13.89
-0.17,0.23,1.32,83.52,24.8,-15.04
-0.19,0.4,1.54,93.0,23.66,-17.01
-0.19,0.4,1.54,93.0,23.66,-17.01
-0.16,0.53,1.51,91.5,19.53,-19.52
-0.12,0.55,1.36,78.75,11.73,-21.52
-0.06,0.45,1.32,58.02,1.49,-22.39
0.03,0.28,1.29,31.97,-9.54,-22.46
0.15,0.09,1.21,3.53,-20.32,-22.13
0.15,0.09,1.21,3.53,-20.32,-22.13
0.27,-0.09,1.13,-24.34,-29.35,-21.83
0.41,-0.31,1.11,-49.41,-34.96,-21.77
0.52,-0.52,0.97,-68.63,-34.89,-22.03
0.56,-0.7,0.78,-80.76,-30.45,-22.61
0.54,-0.82,0.65,-85.85,-24.23,-22.82
0.54,-0.82,0.65,-85.85,-24.23,-22.82
0.5,-0.9,0.62,-83.15,-16.28,-22.51
0.48,-0.93,0.61,-72.86,-6.48,-22.21
0.47,-0.91,0.59,-56.39,4.88,-22.25
0.44,-0.81,0.58,-35.58,16.63,-22.43
0.42,-0.67,0.62,-12.06,28.29,-22.6
0.42,-0.67,0.62,-12.06,28.29,-22.6
0.41,-0.55,0.68,12.25,40.14,-22.39
0.39,-0.48,0.71,35.87,51.95,-21.63
0.33,-0.44,0.67,58.56,63.43,-20.88
0.21,-0.35,0.65,80.99,73.52,-19.81
0.03,-0.2,0.71,103.01,81.27,-18.39
0.03,-0.2,0.71,103.01,81.27,-18.39
-0.16,-0.01,0.82,123.69,85.75,-17.13
-0.34,0.23,1.02,141.9,86.48,-16.66
-0.54,0.56,1.43,156.47,84.8,-18.2
-0.65,0.93,1.78,162.62,79.78,-23.0
-0.58,1.15,1.61,154.15,68.92,-30.6
-0.58,1.15,1.61,154.15,68.92,-30.6
-0.49,1.22,1.41,133.06,53.33,-38.54
-0.35,1.16,1.38,102.71,33.76,-45.43
-0.11,1.0,1.35,64.05,12.39,-50.5
0.11,0.8,1.28,19.78,-6.27,-52.75
0.22,0.58,1.2,-25.93,-20.79,-52.49
0.22,0.58,1.2,-25.93,-20.79,-52.49
0.26,0.32,1.14,-69.24,-31.4,-51.26
0.27,0.02,1.13,-106.46,-39.01,-49.89
0.4,-0.28,1.16,-134.16,-43.35,-48.27
0.56,-0.54,0.93,-150.0,-40.07,-46.62
0.59,-0.71,0.64,-151.97,-29.86,-45.37
0.59,-0.71,0.64,-151.97,-29.86,-45.37
0.55,-0.83,0.52,-142.07,-18.24,-43.89
0.45,-0.82,0.53,-122.07,-7.11,-41.26
0.36,-0.66,0.56,-93.28,3.99,-37.79
0.24,-0.4,0.65,-59.21,14.35,-34.09
0.11,-0.1,0.8,-24.76,21.91,-30.11
0.11,-0.1,0.8,-24.76,21.91,-30.11
-0.08,0.2,0.98,5.78,25.81,-27.05
-0.11,0.29,1.04,30.79,26.47,-27.76
-0.11,0.35,1.01,51.26,24.75,-29.43
-0.07,0.46,1.19,67.57,20.53,-31.59
0.01,0.57,1.51,78.19,15.32,-34.42
0.01,0.57,1.51,78.19,15.32,-34.42
0.08,0.67,1.63,78.6,8.42,-37.79
0.16,0.7,1.4,66.22,-1.16,-40.73
0.21,0.63,1.2,44.6,-11.52,-43.0
0.24,0.48,1.18,18.12,-20.55,-44.57
0.28,0.29,1.16,-10.74,-27.77,-45.64
0.28,0.29,1.16,-10.74,-27.77,-45.64
0.33,0.12,1.07,-39.17,-33.57,-46.64
0.39,-0.06,0.97,-64.04,-37.37,-47.85
0.47,-0.27,0.92,-83.21,-38.27,-49.25
0.56,-0.46,0.81,-95.02,-34.73,-50.62
0.59,-0.61,0.67,-98.04,-26.92,-51.95
0.59,-0.61,0.67,-98.04,-26.92,-51.95
0.57,-0.73,0.58,-93.15,-17.13,-53.01
0.49,-0.8,0.54,-80.63,-6.58,-53.28
0.3,-0.65,0.51,-60.27,3.44,-51.98
0.09,-0.34,0.59,-34.8,11.46,-49.56
-0.04,-0.01,0.78,-8.82,15.67,-46.93
-0.04,-0.01,0.78,-8.82,15.67,-46.93
-0.09,0.29,0.99,13.45,16.1,-44.67
-0.1,0.52,1.17,29.03,14.17,-43.35
-0.08,0.68,1.23,37.1,11.21,-43.27
-0.05,0.73,1.25,37.61,6.76,-44.17
-0.03,0.73,1.27,30.07,0.23,-44.5
-0.03,0.73,1.27,30.07,0.23,-44.5
-0.04,0.75,1.21,14.17,-8.19,-43.66
0.09,0.59,1.11,-8.85,-18.51,-44.79
0.24,0.36,1.04,-35.04,-28.52,-46.41
0.3,0.15,0.99,-60.84,-36.14,-45.87
0.38,-0.05,0.95,-84.19,-41.1,-44.89
0.38,-0.05,0.95,-84.19,-41.1,-44.89
0.47,-0.24,0.88,-102.81,-42.05,-43.79
0.49,-0.41,0.72,-113.71,-37.94,-42.62
0.44,-0.57,0.59,-116.14,-31.01,-41.79
0.36,-0.68,0.53,-110.12,-23.4,-40.9
0.27,-0.67,0.54,-96.24,-15.89,-39.07
0.27,-0.67,0.54,-96.24,-15.89,-39.07
0.22,-0.59,0.54,-76.32,-8.79,-36.45
0.17,-0.4,0.57,-51.86,-2.42,-33.13
0.1,-0.12,0.64,-24.52,2.51,-28.72
0.03,0.17,0.76,2.26,5.44,-23.0
0.02,0.47,0.96,24.96,5.99,-15.3
0.02,0.47,0.96,24.96,5.99,-15.3
0.01,0.76,1.17,40.64,5.24,-5.67
0.07,0.85,1.21,47.2,3.64,2.51
0.14,0.82,1.14,45.22,1.25,9.47
0.14,0.74,1.13,36.83,-1.94,16.81
0.18,0.58,1.14,22.79,-5.83,22.03
0.18,0.58,1.14,22.79,-5.83,22.03
0.25,0.39,1.13,4.57,-8.51,24.95
0.28,0.21,1.11,-15.69,-8.88,25.69
0.36,-0.05,1.14,-35.96,-7.4,23.67
0.45,-0.29,1.06,-52.69,-2.24,20.51
0.47,-0.52,0.89,-63.37,6.65,17.74
0.47,-0.52,0.89,-63.37,6.65,17.74
0.43,-0.7,0.73,-66.45,16.88,16.08
0.36,-0.83,0.63,-60.58,27.6,15.38
0.27,-0.88,0.59,-45.48,38.17,15.47
0.16,-0.84,0.58,-22.36,47.6,16.4
0.04,-0.7,0.61,6.63,54.76,17.82
0.04,-0.7,0.61,6.63,54.76,17.82
-0.11,-0.46,0.68,38.86,58.35,19.64
-0.24,-0.15,0.77,71.4,57.53,22.03
-0.38,0.22,0.91,100.72,51.54,24.57
-0.5,0.6,1.23,123.15,40.93,25.38
-0.51,0.94,1.5,137.27,29.68,23.61
-0.51,0.94,1.5,137.27,29.68,23.61
-0.49,1.24,1.66,142.27,20.61,19.58
-0.41,1.43,1.71,135.08,9.52,11.5
-0.15,1.35,1.42,113.2,-6.28,0.12
0.09,1.1,1.17,80.57,-23.95,-10.93
0.24,0.84,1.15,41.92,-39.91,-18.27
0.24,0.84,1.15,41.92,-39.91,-18.27
0.33,0.61,1.12,-0.87,-51.46,-21.19
0.34,0.38,0.97,-45.67,-57.19,-20.88
0.28,0.17,0.87,-88.1,-58.55,-19.61
0.19,-0.12,0.88,-124.09,-58.29,-19.17
0.25,-0.45,1.05,-150.03,-58.97,-19.21
0.25,-0.45,1.05,-150.03,-58.97,-19.21
0.36,-0.73,0.9,-164.37,-54.23,-19.3
0.36,-0.93,0.5,-164.28,-41.13,-20.46
0.27,-1.07,0.24,-149.34,-26.33,-23.06
0.16,-1.1,0.14,-120.44,-14.27,-25.46
0.06,-0.96,0.2,-79.63,-6.3,-25.7
0.06,-0.96,0.2,-79.63,-6.3,-25.7
-0.04,-0.63,0.39,-32.22,-2.37,-22.82
-0.1,-0.26,0.63,15.51,-2.02,-18.36
-0.11,0.09,0.89,58.33,-4.18,-14.47
-0.09,0.43,1.16,92.64,-7.46,-11.54
0.01,0.67,1.32,117.32,-9.33,-9.67
0.01,0.67,1.32,117.32,-9.33,-9.67
0.1,0.88,1.34,133.51,-8.3,-7.85
0.14,1.01,1.37,142.09,-5.92,-7.39
0.15,1.07,1.57,142.32,-3.89,-8.75
0.08,1.1,1.66,129.76,-4.48,-9.37
0.04,1.01,1.24,101.89,-9.36,-7.95
0.04,1.01,1.24,101.89,-9.36,-7.95
0.04,0.8,0.91,65.96,-15.41,-5.92
0.06,0.54,0.88,28.3,-20.42,-4.23
0.08,0.32,0.91,-9.92,-24.91,-2.67
0.09,0.12,0.92,-46.74,-29.92,-1.3
0.13,-0.06,0.96,-77.99,-35.98,-0.18
0.13,-0.06,0.96,-77.99,-35.98,-0.18
0.25,-0.24,0.95,-102.08,-40.62,-0.12
0.41,-0.49,0.92,-117.71,-40.02,-1.47
0.51,-0.68,0.59,-120.01,-30.86,-3.81
0.46,-0.83,0.33,-107.83,-17.01,-6.62
0.31,-0.86,0.23,-83.4,-3.97,-8.25
0.31,-0.86,0.23,-83.4,-3.97,-8.25
0.1,-0.63,0.29,-49.0,5.62,-7.34
-0.07,-0.28,0.45,-8.8,12.07,-4.82
-0.14,0.07,0.71,31.61,15.71,-2.79
-0.08,0.37,1.06,67.64,18.4,-2.45
0.07,0.64,1.29,95.48,22.4,-3.05
0.07,0.64,1.29,95.48,22.4,-3.05
0.19,0.84,1.36,111.65,26.66,-2.12
0.16,0.98,1.33,115.0,29.35,3.1
-0.03,1.07,1.25,107.52,29.96,11.28
-0.19,1.05,1.14,91.78,28.51,16.14
-0.16,0.87,1.01,70.5,25.3,14.78
-0.16,0.87,1.01,70.5,25.3,14.78
-0.0,0.65,0.92,45.5,20.71,10.06
0.12,0.48,0.91,17.42,16.49,6.35
0.18,0.35,0.93,-12.36,13.98,5.43
0.18,0.25,0.92,-40.66,13.76,7.0
0.17,0.16,0.87,-64.84,16.22,9.85
0.17,0.16,0.87,-64.84,16.22,9.85
0.15,0.06,0.8,-83.85,20.6,12.48
0.13,-0.09,0.77,-96.23,25.21,14.26
0.13,-0.28,0.74,-100.98,29.58,16.14
0.14,-0.43,0.67,-97.96,33.82,20.21
0.11,-0.45,0.6,-87.39,37.33,27.73
0.11,-0.45,0.6,-87.39,37.33,27.73
0.05,-0.41,0.63,-70.78,39.1,37.11
-0.02,-0.32,0.79,-49.71,39.48,45.99
-0.09,-0.16,0.93,-26.27,39.26,53.14
-0.15,0.04,1.11,-3.42,38.39,58.52
-0.18,0.24,1.33,16.07,37.11,61.91
-0.18,0.24,1.33,16.07,37.11,61.91
-0.17,0.41,1.57,29.11,35.29,62.67
-0.15,0.54,1.69,30.98,31.22,60.97
-0.11,0.55,1.53,19.13,23.46,57.87
-0.08,0.41,1.33,-2.23,12.78,55.3
-0.06,0.22,1.23,-26.72,1.18,54.12
-0.06,0.22,1.23,-26.72,1.18,54.12
0.05,-0.03,1.18,-50.28,-8.77,52.72
0.14,-0.24,1.02,-69.14,-14.52,50.03
0.19,-0.41,0.84,-81.69,-16.51,46.46
0.19,-0.5,0.72,-88.25,-16.48,43.28
0.18,-0.59,0.65,-88.95,-15.26,40.79
0.18,-0.59,0.65,-88.95,-15.26,40.79
0.18,-0.67,0.61,-83.49,-13.03,38.89
0.17,-0.74,0.57,-71.74,-9.37,37.5
0.13,-0.74,0.49,-54.01,-4.49,36.55
0.08,-0.63,0.43,-30.72,0.32,36.35
0.03,-0.47,0.46,-3.04,4.03,36.99
0.03,-0.47,0.46,-3.04,4.03,36.99
0.0,-0.3,0.6,26.83,6.4,37.9
0.0,-0.15,0.82,56.08,8.11,38.24
0.05,-0.02,1.06,81.91,10.25,37.9
0.1,0.12,1.24,101.81,13.4,37.96
0.13,0.23,1.28,114.29,17.05,39.91
0.13,0.23,1.28,114.29,17.05,39.91
0.09,0.32,1.27,119.45,20.07,44.66
-0.06,0.39,1.27,118.28,21.53,51.61
-0.25,0.46,1.3,111.37,20.76,58.49
-0.39,0.53,1.31,98.57,16.57,63.22
-0.42,0.58,1.25,79.87,8.45,65.18
-0.42,0.58,1.25,79.87,8.45,65.18
-0.34,0.57,1.16,55.73,-3.11,65.36
-0.2,0.48,1.1,27.01,-16.72,65.15
-0.1,0.38,1.09,-4.57,-30.19,64.89
-0.02,0.26,1.05,-37.02,-42.23,64.4
0.06,0.13,0.96,-68.16,-52.06,63.77
0.06,0.13,0.96,-68.16,-52.06,63.77
0.13,-0.01,0.89,-96.26,-59.06,63.12
0.2,-0.16,0.88,-119.95,-62.93,62.51
0.29,-0.34,0.86,-137.26,-61.98,61.79
0.32,-0.48,0.72,-145.87,-54.94,60.59
0.28,-0.6,0.63,-146.22,-44.66,58.89
0.28,-0.6,0.63,-146.22,-44.66,58.89
0.26,-0.7,0.59,-139.82,-33.89,57.35
0.2,-0.74,0.6,-127.53,-23.38,56.46
0.14,-0.75,0.62,-109.87,-12.73,55.76
0.08,-0.72,0.62,-87.45,-2.04,54.69
0.02,-0.65,0.59,-61.81,7.76,53.52
0.02,-0.65,0.59,-61.81,7.76,53.52
-0.01,-0.58,0.53,-34.25,15.57,52.64
-0.05,-0.54,0.46,-4.19,21.25,52.02
-0.08,-0.49,0.41,29.35,25.49,50.48
-0.11,-0.38,0.41,65.5,28.38,47.83
-0.15,-0.18,0.43,101.69,29.39,44.87
-0.15,-0.18,0.43,101.69,29.39,44.87
-0.17,0.02,0.51,135.46,28.64,41.53
-0.14,0.23,0.69,165.2,27.1,37.85
-0.02,0.47,0.89,189.88,27.74,34.31
0.12,0.69,1.11,207.88,31.69,31.87
0.09,0.94,1.44,215.57,35.14,32.57
0.09,0.94,1.44,215.57,35.14,32.57
0.03,1.06,1.36,207.6,33.8,36.47
-0.01,1.09,1.11,185.4,30.61,41.52
-0.08,1.07,1.09,154.28,28.11,46.41
-0.13,0.96,1.12,115.53,26.24,50.77
-0.14,0.77,1.06,70.05,25.49,54.81
-0.14,0.77,1.06,70.05,25.49,54.81
-0.15,0.57,0.98,20.36,25.98,58.18
-0.22,0.37,0.94,-30.57,26.0,60.03
-0.36,0.05,0.98,-77.95,21.59,60.32
-0.33,-0.3,1.12,-114.51,9.16,60.95
-0.33,-0.3,1.12,-139.56,-2.99,63.0
-0.14,-0.55,1.1,-139.56,-2.99,63.0
0.07,-0.78,1.0,-155.76,-8.55,65.5
0.21,-0.95,0.71,-158.68,-7.11,66.91
0.22,-1.09,0.41,-145.74,-0.38,66.42
0.12,-1.12,0.28,-118.85,6.66,65.79
0.12,-1.12,0.28,-81.9,10.75,67.18
-0.04,-0.9,0.37,-81.9,10.75,67.18
-0.17,-0.48,0.65,-40.86,11.89,70.61
-0.21,-0.04,1.0,-3.42,11.42,73.87
-0.21,0.29,1.24,24.22,10.46,76.22
-0.18,0.36,1.22,41.22,8.95,75.78
-0.18,0.36,1.22,54.54,8.64,70.63
-0.07,0.2,0.93,54.54,8.64,70.63
-0.04,0.1,0.87,69.88,9.84,65.47
-0.08,0.06,1.16,85.28,11.13,62.29
-0.11,0.14,1.51,97.35,13.68,60.39
-0.13,0.25,1.65,101.25,17.12,58.2
-0.13,0.25,1.65,101.25,17.12,58.2
-0.18,0.37,1.49,92.87,17.42,55.55
-0.22,0.35,1.12,72.54,12.55,52.57
-0.28,0.18,0.97,47.12,4.21,50.28
-0.26,0.0,1.04,22.32,-5.92,48.66
-0.13,-0.12,1.04,-0.17,-15.51,47.21
-0.13,-0.12,1.04,-0.17,-15.51,47.21
0.01,-0.16,0.98,-18.94,-22.52,46.43
0.08,-0.19,0.92,-33.08,-26.27,46.28
0.1,-0.27,0.88,-41.69,-26.78,46.06
0.07,-0.33,0.86,-44.66,-24.11,45.65
0.03,-0.41,0.84,-43.46,-19.7,45.55
0.03,-0.41,0.84,-43.46,-19.7,45.55
0.02,-0.46,0.81,-38.47,-14.81,47.07
-0.04,-0.45,0.78,-29.33,-9.4,50.66
-0.16,-0.35,0.83,-16.91,-4.67,55.26
-0.27,-0.16,0.96,-3.52,-1.8,59.56
-0.32,0.02,1.07,7.77,-1.36,62.61
-0.32,0.02,1.07,7.77,-1.36,62.61
-0.33,0.15,1.14,15.12,-3.12,64.65
-0.35,0.26,1.19,17.66,-7.05,65.98
-0.52,0.4,1.22,14.2,-13.87,65.85
-0.37,0.23,1.3,5.26,-23.97,58.9
-0.27,0.25,1.26,-8.24,-33.21,52.71
-0.27,0.25,1.26,-8.24,-33.21,52.71
-0.22,0.3,1.19,-29.22,-44.33,50.57
-0.14,0.28,1.05,-59.04,-57.88,47.98
0.06,0.03,1.03,-94.5,-71.93,42.98
0.23,-0.26,1.02,-130.02,-82.25,38.04
0.42,-0.62,0.99,-160.99,-85.21,35.12
0.42,-0.62,0.99,-160.99,-85.21,35.12
0.5,-0.89,0.7,-181.55,-78.37,33.68
0.47,-1.09,0.46,-190.37,-66.39,33.1
0.33,-1.23,0.3,-188.37,-50.98,33.23
0.12,-1.39,0.21,-175.13,-32.32,31.98
-0.04,-1.58,0.14,-149.44,-13.22,27.59
-0.04,-1.58,0.14,-149.44,-13.22,27.59
-0.07,-1.59,0.12,-112.2,2.34,21.99
-0.04,-1.33,0.19,-66.78,12.89,19.29
-0.08,-0.91,0.38,-17.68,18.64,21.25
-0.15,-0.5,0.6,30.39,20.34,25.58
-0.26,-0.19,0.81,73.24,18.22,29.7
-0.26,-0.19,0.81,73.24,18.22,29.7
-0.34,0.05,0.98,108.27,12.35,32.47
-0.36,0.29,1.25,134.53,4.67,34.06
-0.34,0.55,1.6,150.57,-1.61,34.68
-0.25,0.73,1.73,151.34,-8.54,34.48
-0.1,0.73,1.33,133.33,-18.99,33.94
-0.1,0.73,1.33,133.33,-18.99,33.94
-0.02,0.53,1.09,102.93,-30.08,33.42
0.03,0.21,1.13,66.22,-39.56,32.65
0.11,-0.11,1.13,26.99,-46.99,32.38
0.2,-0.36,1.06,-9.84,-51.6,33.43
0.29,-0.6,0.98,-41.44,-51.53,35.1
0.29,-0.6,0.98,-41.44,-51.53,35.1
0.34,-0.81,0.71,-64.36,-44.82,36.15
0.29,-1.04,0.45,-75.55,-33.02,35.8
0.18,-1.22,0.35,-75.48,-19.75,34.45
0.11,-1.33,0.3,-65.09,-7.64,32.76
0.07,-1.31,0.27,-45.55,2.73,30.89
0.07,-1.31,0.27,-45.55,2.73,30.89
0.06,-1.12,0.28,-17.71,11.98,28.76
0.04,-0.81,0.41,15.95,19.52,26.92
0.0,-0.47,0.59,50.49,24.69,25.88
-0.04,-0.16,0.79,81.48,27.2,25.18
-0.1,0.11,0.94,106.0,27.32,24.11
-0.1,0.11,0.94,106.0,27.32,24.11
-0.11,0.32,1.08,122.95,25.46,22.6
-0.14,0.51,1.28,132.57,23.13,21.42
-0.21,0.61,1.53,133.16,19.91,18.07
0.01,0.41,1.59,122.22,14.13,9.16
0.08,0.32,1.36,99.89,8.33,5.53
0.08,0.32,1.36,99.89,8.33,5.53
-0.04,0.32,1.23,69.02,1.84,8.25
-0.04,0.11,1.27,32.22,-5.83,8.1
0.08,-0.19,1.3,-5.21,-13.29,4.58
0.2,-0.43,1.21,-39.53,-17.32,1.64
0.34,-0.68,0.97,-67.99,-15.8,-0.81
0.34,-0.68,0.97,-67.99,-15.8,-0.81
0.35,-0.9,0.7,-86.04,-8.63,-3.79
0.41,-1.15,0.46,-92.75,1.54,-7.15
0.42,-1.32,0.33,-88.29,12.08,-9.64
0.41,-1.36,0.25,-71.81,22.41,-11.23
0.35,-1.2,0.29,-43.05,32.83,-12.16
0.35,-1.2,0.29,-43.05,32.83,-12.16
0.29,-0.86,0.39,-5.81,42.34,-11.67
0.19,-0.47,0.58,33.9,49.98,-9.38
0.09,-0.13,0.78,71.85,54.97,-5.97
0.03,0.14,0.98,104.97,57.7,-2.73
0.01,0.37,1.23,131.17,59.28,-0.54
0.01,0.37,1.23,131.17,59.28,-0.54
0.01,0.58,1.52,149.19,61.98,0.36
-0.04,0.71,1.71,156.42,66.0,-0.7
-0.13,0.72,1.7,149.35,67.84,-4.34
-0.2,0.63,1.45,128.3,66.34,-9.88
-0.28,0.45,1.26,98.37,62.25,-15.69
-0.28,0.45,1.26,98.37,62.25,-15.69
-0.27,0.23,1.22,64.62,54.91,-21.03
-0.14,0.04,1.2,30.23,44.81,-25.73
0.01,-0.1,1.15,-1.85,33.98,-29.37
0.12,-0.23,1.09,-29.3,24.12,-31.92
0.21,-0.37,1.02,-51.14,16.11,-33.63
0.21,-0.37,1.02,-51.14,16.11,-33.63
0.3,-0.51,0.93,-66.69,10.48,-34.46
0.39,-0.68,0.87,-74.59,7.85,-34.0
0.47,-0.81,0.68,-72.25,10.44,-32.24
0.47,-0.86,0.54,-59.52,16.53,-29.27
0.4,-0.75,0.59,-38.83,23.25,-24.67
0.4,-0.75,0.59,-38.83,23.25,-24.67
0.28,-0.52,0.76,-13.1,30.9,-19.74
0.15,-0.25,0.89,13.44,39.36,-15.92
-0.06,0.03,1.02,36.07,46.22,-13.89
-0.17,0.16,1.09,52.68,50.17,-15.35
-0.2,0.23,1.03,64.8,52.1,-16.98
-0.2,0.23,1.03,64.8,52.1,-16.98
-0.31,0.31,1.04,74.16,51.81,-17.12
-0.43,0.35,1.24,80.93,48.03,-19.39
-0.5,0.43,1.49,83.92,41.8,-24.41
-0.52,0.62,1.63,78.36,31.38,-31.25
-0.37,0.74,1.34,59.49,14.58,-39.26
-0.37,0.74,1.34,59.49,14.58,-39.26
-0.16,0.66,1.11,30.84,-5.74,-46.57
0.04,0.45,1.19,-1.96,-26.41,-51.42
0.23,0.2,1.24,-35.91,-44.77,-53.69
0.37,0.01,1.16,-67.05,-58.51,-53.96
0.46,-0.15,1.0,-92.51,-66.58,-53.37
0.46,-0.15,1.0,-92.51,-66.58,-53.37
0.48,-0.3,0.87,-111.31,-69.43,-52.27
0.56,-0.5,0.86,-123.11,-67.26,-51.14
0.66,-0.72,0.8,-126.68,-57.67,-50.64
