ax,ay,az,gx,gy,gz
-0.47,0.08,0.83,-3.07,-5.18,-0.89
-0.47,0.08,0.83,-2.85,-5.44,-0.77
-0.47,0.08,0.83,-2.85,-5.44,-0.77
-0.47,0.09,0.84,-2.64,-5.52,-0.75
-0.47,0.09,0.84,-2.53,-5.38,-0.83
-0.47,0.09,0.84,-2.53,-5.05,-0.97
-0.47,0.09,0.84,-2.66,-4.61,-1.13
-0.47,0.08,0.83,-2.85,-4.19,-1.32
-0.47,0.08,0.83,-2.85,-4.19,-1.32
-0.47,0.08,0.83,-3.05,-3.84,-1.51
-0.47,0.08,0.83,-3.15,-3.64,-1.68
-0.47,0.08,0.84,-3.16,-3.6,-1.8
-0.47,0.08,0.83,-3.11,-3.72,-1.84
-0.47,0.08,0.83,-3.05,-3.94,-1.86
-0.47,0.08,0.83,-3.05,-3.94,-1.86
-0.47,0.08,0.83,-2.98,-4.21,-1.89
-0.47,0.08,0.83,-2.85,-4.47,-1.96
-0.47,0.09,0.83,-2.65,-4.7,-1.96
-0.47,0.1,0.84,-2.41,-4.84,-1.96
-0.48,0.1,0.84,-2.3,-4.95,-1.96
-0.48,0.1,0.84,-2.3,-4.95,-1.96
-0.47,0.11,0.84,-2.4,-5.1,-2.01
-0.47,0.11,0.84,-2.65,-5.22,-2.09
-0.47,0.11,0.84,-2.95,-5.18,-2.13
-0.48,0.1,0.84,-3.35,-4.99,-2.22
-0.47,0.09,0.83,-3.76,-4.76,-2.42
-0.47,0.09,0.83,-3.76,-4.76,-2.42
-0.47,0.09,0.83,-4.01,-4.44,-2.6
-0.47,0.1,0.83,-4.04,-4.03,-2.67
-0.47,0.1,0.83,-3.95,-3.57,-2.69
-0.47,0.1,0.83,-3.8,-3.14,-2.64
-0.47,0.1,0.84,-3.63,-2.77,-2.48
-0.47,0.1,0.84,-3.63,-2.77,-2.48
-0.48,0.1,0.84,-3.45,-2.53,-2.25
-0.48,0.09,0.84,-3.21,-2.42,-2.03
-0.49,0.1,0.84,-2.83,-2.45,-1.84
-0.49,0.1,0.84,-2.37,-2.55,-1.74
-0.48,0.11,0.84,-1.94,-2.72,-1.68
-0.48,0.11,0.84,-1.94,-2.72,-1.68
-0.48,0.11,0.85,-1.6,-2.94,-1.64
-0.48,0.11,0.85,-1.45,-3.16,-1.62
-0.47,0.11,0.85,-1.51,-3.42,-1.61
-0.48,0.11,0.84,-1.72,-3.65,-1.59
-0.47,0.1,0.84,-1.98,-3.87,-1.63
-0.47,0.1,0.84,-1.98,-3.87,-1.63
-0.47,0.1,0.84,-2.27,-4.05,-1.65
-0.46,0.1,0.83,-2.57,-4.1,-1.66
-0.46,0.09,0.83,-2.81,-4.06,-1.67
-0.46,0.09,0.83,-2.95,-3.98,-1.65
-0.46,0.09,0.83,-2.94,-3.81,-1.61
-0.46,0.09,0.83,-2.94,-3.81,-1.61
-0.47,0.09,0.83,-2.82,-3.57,-1.58
-0.47,0.09,0.83,-2.66,-3.36,-1.54
-0.47,0.1,0.84,-2.47,-3.21,-1.49
-0.47,0.1,0.84,-2.25,-3.12,-1.35
-0.47,0.1,0.84,-2.09,-3.15,-1.16
-0.47,0.1,0.84,-2.09,-3.15,-1.16
-0.48,0.11,0.84,-2.05,-3.38,-0.95
-0.48,0.1,0.84,-2.12,-3.79,-0.71
-0.47,0.1,0.84,-2.27,-4.3,-0.51
-0.47,0.09,0.84,-2.4,-4.82,-0.43
-0.47,0.09,0.84,-2.47,-5.28,-0.43
-0.46,0.09,0.83,-2.47,-5.28,-0.43
-0.45,0.09,0.84,-2.43,-5.57,-0.45
-0.44,0.09,0.83,-2.37,-5.63,-0.46
-0.45,0.1,0.84,-2.36,-5.44,-0.48
-0.45,0.1,0.83,-2.41,-5.15,-0.51
-0.45,0.1,0.83,-2.41,-5.15,-0.51
-0.45,0.1,0.83,-2.55,-4.83,-0.59
-0.45,0.1,0.84,-2.75,-4.54,-0.65
-0.45,0.1,0.84,-3.0,-4.25,-0.72
-0.45,0.1,0.83,-3.27,-4.0,-0.79
-0.45,0.09,0.83,-3.47,-3.77,-0.83
-0.45,0.09,0.83,-3.47,-3.77,-0.83
-0.45,0.09,0.83,-3.53,-3.48,-0.87
-0.44,0.09,0.82,-3.42,-3.13,-0.9
-0.43,0.09,0.83,-3.16,-2.68,-0.9
-0.43,0.1,0.83,-2.76,-2.15,-0.8
-0.44,0.1,0.84,-2.36,-1.58,-0.63
-0.44,0.1,0.84,-2.36,-1.58,-0.63
-0.45,0.11,0.84,-1.97,-1.03,-0.49
-0.45,0.12,0.85,-1.67,-0.49,-0.43
-0.46,0.13,0.84,-1.58,0.12,-0.46
-0.46,0.12,0.83,-1.5,0.8,-0.53
-0.46,0.13,0.84,-1.47,1.32,-0.59
-0.46,0.13,0.84,-1.47,1.32,-0.59
-0.45,0.14,0.84,-1.64,1.73,-0.64
-0.45,0.14,0.84,-1.92,1.96,-0.61
-0.45,0.13,0.84,-2.27,1.96,-0.39
-0.46,0.13,0.84,-2.72,1.71,-0.03
-0.45,0.13,0.83,-3.23,1.34,0.32
-0.45,0.13,0.83,-3.23,1.34,0.32
-0.45,0.13,0.84,-3.69,1.07,0.5
-0.44,0.12,0.84,-4.02,1.06,0.55
-0.45,0.13,0.84,-4.16,1.36,0.62
-0.46,0.14,0.85,-4.24,1.83,0.81
-0.47,0.14,0.86,-4.45,2.37,1.08
-0.47,0.14,0.86,-4.45,2.37,1.08
-0.48,0.14,0.86,-4.88,2.8,1.29
-0.49,0.13,0.85,-5.4,3.09,1.46
-0.49,0.12,0.85,-5.87,3.26,1.62
-0.49,0.11,0.84,-6.14,3.34,1.74
-0.49,0.11,0.84,-6.16,3.32,1.91
-0.49,0.11,0.84,-6.16,3.32,1.91
-0.5,0.11,0.85,-6.01,3.19,2.19
-0.5,0.11,0.85,-5.87,2.84,2.52
-0.51,0.11,0.85,-5.79,2.32,2.83
-0.51,0.11,0.85,-5.75,1.61,3.12
-0.5,0.11,0.85,-5.73,0.8,3.35
-0.5,0.11,0.85,-5.73,0.8,3.35
-0.5,0.1,0.85,-5.78,0.11,3.58
-0.5,0.1,0.85,-5.84,-0.51,3.81
-0.49,0.09,0.84,-5.86,-1.01,3.95
-0.49,0.09,0.83,-5.79,-1.29,4.05
-0.5,0.09,0.83,-5.71,-1.42,4.12
-0.5,0.09,0.83,-5.71,-1.42,4.12
-0.5,0.08,0.83,-5.55,-1.45,4.14
-0.51,0.08,0.82,-5.36,-1.42,4.12
-0.51,0.08,0.82,-5.16,-1.3,4.1
-0.52,0.08,0.82,-4.95,-1.14,4.08
-0.52,0.07,0.81,-4.73,-0.96,4.0
-0.52,0.07,0.81,-4.73,-0.96,4.0
-0.53,0.07,0.81,-4.49,-0.78,3.95
-0.54,0.07,0.81,-4.27,-0.57,3.91
-0.55,0.06,0.8,-4.1,-0.45,3.97
-0.56,0.05,0.8,-4.07,-0.45,4.06
-0.57,0.04,0.79,-4.11,-0.53,4.15
-0.57,0.04,0.79,-4.11,-0.53,4.15
-0.58,0.02,0.78,-4.11,-0.59,4.22
-0.6,0.0,0.77,-3.99,-0.63,4.28
-0.61,-0.02,0.76,-3.75,-0.61,4.29
-0.63,-0.04,0.74,-3.49,-0.44,4.19
-0.64,-0.07,0.73,-3.2,-0.16,4.02
-0.64,-0.07,0.73,-3.2,-0.16,4.02
-0.64,-0.1,0.72,-2.9,0.3,3.74
-0.66,-0.14,0.69,-2.44,1.27,3.39
-0.67,-0.17,0.67,-1.69,2.5,3.02
-0.67,-0.2,0.65,-0.69,3.93,2.58
-0.66,-0.22,0.64,0.65,5.76,1.95
-0.66,-0.22,0.64,0.65,5.76,1.95
-0.64,-0.24,0.63,2.42,7.91,1.16
-0.62,-0.25,0.64,4.68,10.35,0.52
-0.63,-0.26,0.66,7.38,12.94,0.31
-0.67,-0.26,0.69,10.03,15.39,0.42
-0.7,-0.26,0.7,12.37,17.39,0.55
-0.7,-0.26,0.7,12.37,17.39,0.55
-0.72,-0.29,0.74,14.34,18.8,0.38
-0.73,-0.3,0.78,15.85,19.6,-0.19
-0.74,-0.3,0.8,16.97,19.97,-1.09
-0.76,-0.3,0.84,17.67,20.03,-2.45
-0.77,-0.3,0.89,17.68,19.73,-4.59
-0.77,-0.3,0.89,17.68,19.73,-4.59
-0.77,-0.3,0.91,16.89,19.06,-7.53
-0.77,-0.3,0.95,15.36,18.15,-11.07
-0.78,-0.31,0.99,12.88,16.99,-15.16
-0.79,-0.31,1.01,9.42,15.61,-19.79
-0.78,-0.33,1.02,5.29,13.94,-24.88
-0.78,-0.33,1.02,5.29,13.94,-24.88
-0.77,-0.35,1.04,0.78,11.89,-30.12
-0.76,-0.37,1.05,-3.91,9.66,-35.3
-0.75,-0.4,1.05,-8.53,7.34,-40.34
-0.74,-0.43,1.04,-12.78,4.84,-45.28
-0.71,-0.47,1.03,-16.15,2.27,-50.1
-0.71,-0.47,1.03,-16.15,2.27,-50.1
-0.67,-0.49,1.03,-18.14,-0.11,-54.65
-0.63,-0.49,1.04,-18.5,-2.17,-58.64
-0.6,-0.48,1.05,-17.23,-3.85,-61.87
-0.57,-0.45,1.06,-14.65,-5.28,-64.38
-0.56,-0.42,1.06,-11.18,-6.59,-66.29
-0.56,-0.42,1.06,-11.18,-6.59,-66.29
-0.55,-0.39,1.06,-7.01,-7.69,-67.84
-0.55,-0.35,1.07,-2.21,-8.64,-69.24
-0.55,-0.3,1.08,3.07,-9.47,-70.69
-0.56,-0.22,1.09,8.81,-10.39,-72.31
-0.57,-0.14,1.11,14.75,-11.55,-73.84
-0.57,-0.14,1.11,14.75,-11.55,-73.84
-0.56,-0.06,1.14,20.27,-13.12,-75.08
-0.55,0.01,1.16,24.41,-15.18,-76.09
-0.5,0.05,1.17,26.76,-17.61,-77.11
-0.46,0.07,1.17,27.4,-20.08,-78.11
-0.44,0.08,1.17,26.77,-22.11,-78.89
-0.44,0.08,1.17,26.77,-22.11,-78.89
-0.43,0.07,1.16,25.31,-23.69,-79.7
-0.42,0.08,1.14,23.4,-25.11,-80.86
-0.4,0.11,1.16,21.05,-26.67,-82.53
-0.38,0.12,1.16,17.68,-28.74,-84.06
-0.37,0.1,1.13,13.53,-31.15,-84.47
-0.37,0.1,1.13,13.53,-31.15,-84.47
-0.34,0.03,1.09,10.16,-33.65,-84.9
-0.25,-0.08,1.07,8.97,-35.15,-85.82
-0.21,-0.12,1.06,10.15,-35.37,-85.01
-0.25,-0.1,1.06,13.29,-34.99,-83.0
-0.24,-0.09,1.05,18.38,-34.34,-82.49
-0.24,-0.09,1.05,18.38,-34.34,-82.49
-0.25,-0.05,1.04,25.06,-33.21,-82.68
-0.28,0.02,1.05,31.93,-32.67,-82.81
-0.28,0.09,1.04,37.91,-33.41,-83.09
-0.25,0.15,1.02,42.9,-35.39,-83.03
-0.22,0.2,1.03,47.35,-38.31,-82.64
-0.22,0.2,1.03,47.35,-38.31,-82.64
-0.2,0.28,1.07,51.18,-41.53,-82.03
-0.21,0.32,1.07,53.11,-45.01,-81.37
-0.24,0.32,1.02,52.79,-48.91,-80.39
-0.26,0.28,0.95,51.21,-53.03,-80.01
-0.25,0.25,0.91,49.68,-56.71,-81.0
-0.25,0.25,0.91,49.68,-56.71,-81.0
-0.22,0.25,0.89,48.47,-59.43,-82.89
-0.21,0.26,0.88,47.93,-60.97,-84.83
-0.21,0.3,0.89,48.35,-61.15,-86.7
-0.23,0.38,0.91,49.55,-60.18,-88.86
-0.24,0.43,0.93,50.38,-58.93,-91.45
-0.24,0.43,0.93,50.38,-58.93,-91.45
-0.26,0.49,0.92,49.85,-58.16,-93.15
-0.31,0.55,0.9,47.31,-58.54,-92.74
-0.35,0.56,0.87,43.1,-60.8,-90.77
-0.37,0.58,0.86,38.4,-64.55,-88.86
-0.36,0.57,0.86,32.94,-69.58,-87.73
-0.36,0.57,0.86,32.94,-69.58,-87.73
-0.34,0.53,0.84,26.81,-75.37,-86.0
-0.34,0.52,0.81,20.89,-80.11,-83.04
-0.33,0.52,0.84,15.88,-83.16,-80.34
-0.33,0.55,0.88,11.65,-84.36,-78.62
-0.34,0.57,0.9,7.71,-83.63,-77.98
-0.34,0.57,0.9,7.71,-83.63,-77.98
-0.35,0.56,0.89,3.92,-81.14,-78.71
-0.34,0.53,0.88,0.97,-77.2,-80.39
-0.35,0.51,0.87,-0.34,-71.8,-81.78
-0.38,0.51,0.89,-0.05,-65.5,-81.98
-0.43,0.53,0.91,1.24,-59.44,-81.15
-0.43,0.53,0.91,1.24,-59.44,-81.15
-0.47,0.54,0.9,2.84,-54.81,-79.78
-0.5,0.55,0.9,4.28,-52.52,-78.07
-0.51,0.53,0.91,5.29,-52.72,-75.95
-0.5,0.51,0.91,5.63,-55.27,-73.36
-0.47,0.5,0.89,5.15,-59.83,-70.45
-0.47,0.5,0.89,5.15,-59.83,-70.45
-0.44,0.51,0.87,4.14,-65.58,-67.34
-0.32,0.46,0.85,2.75,-71.85,-65.06
-0.29,0.45,0.84,1.44,-76.73,-61.02
-0.32,0.52,0.82,0.57,-78.95,-55.24
-0.2,0.53,0.86,1.07,-78.73,-54.27
-0.2,0.53,0.86,1.07,-78.73,-54.27
-0.18,0.53,0.89,2.07,-75.05,-54.0
-0.22,0.51,0.87,3.57,-67.72,-53.04
-0.31,0.5,0.84,5.64,-58.22,-51.3
-0.38,0.48,0.81,7.83,-48.96,-48.79
-0.43,0.47,0.79,9.71,-41.61,-45.41
-0.43,0.47,0.79,9.71,-41.61,-45.41
-0.46,0.48,0.77,10.96,-37.09,-41.26
-0.44,0.51,0.78,11.61,-35.64,-36.84
-0.39,0.54,0.8,11.9,-36.39,-32.43
-0.32,0.57,0.83,12.02,-37.97,-27.64
-0.29,0.61,0.85,12.02,-39.21,-22.37
-0.29,0.61,0.85,12.02,-39.21,-22.37
-0.28,0.63,0.85,11.7,-39.56,-16.69
-0.29,0.65,0.83,10.75,-38.97,-10.41
-0.31,0.63,0.81,8.83,-37.8,-3.64
-0.32,0.57,0.79,5.8,-36.7,3.04
-0.3,0.47,0.77,1.87,-36.04,9.21
-0.3,0.47,0.77,1.87,-36.04,9.21
-0.29,0.39,0.75,-2.07,-35.66,14.95
-0.27,0.33,0.74,-4.94,-35.05,20.21
-0.25,0.27,0.74,-6.2,-33.75,25.0
-0.23,0.23,0.75,-5.92,-31.57,29.53
-0.23,0.22,0.75,-4.26,-28.5,33.88
-0.23,0.22,0.75,-4.26,-28.5,33.88
-0.23,0.24,0.78,-1.26,-24.51,38.04
-0.24,0.28,0.83,2.74,-19.61,42.15
-0.29,0.32,0.88,6.87,-13.94,46.29
-0.35,0.37,0.9,10.15,-8.02,50.19
-0.39,0.4,0.9,11.93,-2.67,53.67
-0.39,0.4,0.9,11.93,-2.67,53.67
-0.43,0.39,0.9,11.79,1.53,56.72
-0.45,0.35,0.88,9.54,4.06,59.56
-0.47,0.29,0.83,5.62,4.81,62.26
-0.46,0.23,0.77,1.3,4.17,64.8
-0.43,0.19,0.73,-2.11,2.76,67.27
-0.43,0.19,0.73,-2.11,2.76,67.27
-0.39,0.18,0.71,-4.0,1.45,69.9
-0.35,0.19,0.69,-4.3,1.07,72.69
-0.33,0.2,0.66,-3.32,2.0,75.44
-0.32,0.23,0.64,-1.45,4.18,78.21
-0.34,0.26,0.62,0.79,7.44,81.26
-0.34,0.26,0.62,0.79,7.44,81.26
-0.37,0.28,0.6,2.88,11.46,84.43
-0.4,0.31,0.58,4.4,15.81,87.41
-0.41,0.32,0.57,5.17,20.26,90.06
-0.41,0.34,0.57,5.1,24.86,92.38
-0.42,0.34,0.57,4.13,29.76,94.53
-0.42,0.34,0.57,4.13,29.76,94.53
-0.43,0.32,0.56,2.1,35.08,96.58
-0.43,0.27,0.54,-0.86,40.42,98.59
-0.45,0.21,0.52,-4.57,45.51,100.6
-0.46,0.15,0.49,-8.38,50.02,102.77
-0.45,0.11,0.47,-11.49,53.51,105.5
-0.45,0.11,0.47,-11.49,53.51,105.5
-0.45,0.09,0.47,-13.57,55.62,109.24
-0.47,0.09,0.49,-14.63,56.43,114.01
-0.51,0.08,0.52,-14.92,56.29,119.14
-0.56,0.07,0.53,-14.76,55.59,123.71
-0.58,0.07,0.55,-14.25,54.69,127.32
-0.58,0.07,0.55,-14.25,54.69,127.32
-0.58,0.1,0.6,-13.59,54.16,129.84
-0.58,0.13,0.65,-13.12,54.53,131.25
-0.61,0.15,0.68,-13.29,55.89,131.46
-0.65,0.15,0.68,-14.34,57.83,130.59
-0.68,0.14,0.66,-16.31,59.65,129.05
-0.68,0.14,0.66,-16.31,59.65,129.05
-0.69,0.12,0.66,-19.28,60.8,127.37
-0.68,0.1,0.65,-23.07,61.08,125.78
-0.67,0.06,0.65,-27.37,60.57,124.37
-0.66,0.01,0.64,-31.55,59.56,123.1
-0.66,-0.03,0.61,-35.04,58.31,121.94
-0.66,-0.03,0.61,-35.04,58.31,121.94
-0.66,-0.07,0.59,-37.32,57.13,120.86
-0.66,-0.1,0.57,-38.03,56.28,119.85
-0.66,-0.11,0.57,-37.04,55.83,118.98
-0.67,-0.11,0.57,-34.43,55.77,118.43
-0.69,-0.08,0.58,-30.4,56.0,118.45
-0.69,-0.08,0.58,-30.4,56.0,118.45
-0.71,-0.03,0.61,-25.58,56.32,119.25
-0.75,0.01,0.63,-20.93,56.55,120.62
-0.79,0.04,0.64,-17.27,56.35,122.07
-0.83,0.06,0.64,-15.04,55.52,123.16
-0.83,0.07,0.63,-14.12,54.04,123.69
-0.83,0.07,0.63,-14.12,54.04,123.69
-0.81,0.08,0.63,-14.2,52.16,123.68
-0.77,0.07,0.65,-15.16,50.28,123.52
-0.74,0.06,0.67,-17.17,48.85,123.46
-0.74,0.02,0.66,-20.13,48.0,123.34
-0.75,-0.03,0.66,-23.52,47.57,123.06
-0.75,-0.03,0.66,-23.52,47.57,123.06
-0.78,-0.08,0.65,-26.78,47.47,122.58
-0.82,-0.12,0.64,-29.34,47.52,121.81
-0.86,-0.15,0.62,-30.87,47.39,120.66
-0.88,-0.17,0.6,-31.24,46.85,119.01
-0.88,-0.17,0.59,-30.46,45.89,116.79
-0.88,-0.17,0.59,-30.46,45.89,116.79
-0.87,-0.15,0.6,-28.74,44.67,114.06
-0.83,-0.1,0.62,-26.37,43.36,110.91
-0.8,-0.05,0.66,-23.84,42.29,107.7
-0.78,-0.0,0.7,-21.93,41.66,104.7
-0.77,0.02,0.72,-21.51,41.56,101.88
-0.77,0.02,0.72,-21.51,41.56,101.88
-0.76,0.03,0.75,-22.97,41.97,98.92
-0.74,0.01,0.77,-26.41,42.87,95.91
-0.72,-0.04,0.78,-31.42,44.28,93.17
-0.72,-0.1,0.78,-37.4,46.02,90.93
-0.74,-0.17,0.78,-43.59,47.87,89.2
-0.74,-0.17,0.78,-43.59,47.87,89.2
-0.78,-0.24,0.77,-49.2,49.56,87.65
-0.82,-0.31,0.75,-53.46,50.66,85.89
-0.85,-0.37,0.72,-55.79,50.89,83.46
-0.86,-0.39,0.71,-55.72,50.39,80.2
-0.85,-0.38,0.72,-52.92,49.34,76.19
-0.85,-0.38,0.72,-52.92,49.34,76.19
-0.83,-0.35,0.75,-47.91,48.03,71.71
-0.81,-0.29,0.78,-41.76,46.48,67.07
-0.78,-0.23,0.81,-35.68,44.69,62.73
-0.76,-0.16,0.84,-30.6,42.67,59.21
-0.76,-0.16,0.84,-27.13,40.31,56.67
-0.75,-0.12,0.86,-27.13,40.31,56.67
-0.76,-0.1,0.87,-25.61,37.62,54.9
-0.76,-0.12,0.88,-25.95,34.91,53.42
-0.75,-0.16,0.87,-27.64,32.41,51.72
-0.74,-0.21,0.85,-30.06,30.21,49.56
-0.74,-0.21,0.85,-32.46,28.46,46.92
-0.72,-0.25,0.85,-32.46,28.46,46.92
-0.71,-0.28,0.85,-34.18,27.31,43.83
-0.74,-0.24,0.85,-35.2,26.72,40.42
-0.74,-0.35,0.79,-35.02,25.88,35.08
-0.58,-0.41,0.85,-31.06,26.57,27.91
-0.58,-0.41,0.85,-31.06,26.57,27.91
-0.69,-0.19,0.97,-28.31,27.42,24.21
-0.74,-0.1,0.98,-29.17,26.07,19.58
-0.65,-0.19,0.87,-30.94,24.86,12.09
-0.52,-0.28,0.81,-31.95,24.25,6.26
-0.51,-0.31,0.81,-32.23,23.32,5.23
-0.51,-0.31,0.81,-32.23,23.32,5.23
-0.53,-0.37,0.77,-29.86,23.09,7.28
-0.64,-0.31,0.83,-24.11,23.75,10.08
-0.74,-0.21,0.93,-18.18,23.3,9.52
-0.69,-0.24,0.91,-13.29,21.78,4.11
-0.62,-0.35,0.88,-8.73,19.86,-2.78
-0.62,-0.35,0.88,-8.73,19.86,-2.78
-0.56,-0.41,0.9,-3.43,18.23,-8.82
-0.51,-0.37,0.93,2.71,17.48,-13.42
-0.52,-0.3,0.94,8.99,17.41,-16.46
-0.56,-0.27,0.94,15.1,17.74,-18.92
-0.59,-0.28,0.93,21.16,18.17,-21.97
-0.59,-0.28,0.93,21.16,18.17,-21.97
-0.58,-0.29,0.91,27.41,18.57,-25.57
-0.57,-0.27,0.9,33.99,18.96,-28.97
-0.56,-0.22,0.9,40.86,19.15,-31.82
-0.57,-0.14,0.91,47.67,18.93,-34.49
-0.58,-0.07,0.92,53.95,18.15,-37.55
-0.58,-0.07,0.92,53.95,18.15,-37.55
-0.57,-0.01,0.93,59.21,16.85,-41.13
-0.55,0.04,0.94,63.06,15.17,-44.97
-0.54,0.09,0.96,65.31,13.28,-48.83
-0.54,0.14,0.97,65.74,11.2,-52.62
-0.54,0.15,0.98,64.23,8.99,-56.46
-0.54,0.15,0.98,64.23,8.99,-56.46
-0.55,0.15,0.97,60.92,6.79,-60.08
-0.56,0.14,0.96,56.17,4.58,-63.63
-0.56,0.12,0.94,50.99,2.45,-67.37
-0.55,0.1,0.92,46.27,0.52,-70.99
-0.54,0.08,0.91,42.69,-1.19,-74.44
-0.54,0.08,0.91,42.69,-1.19,-74.44
-0.55,0.1,0.93,40.4,-2.7,-77.48
-0.56,0.13,0.94,38.89,-4.27,-80.4
-0.57,0.16,0.96,37.57,-5.99,-83.45
-0.55,0.17,0.96,36.1,-7.89,-86.54
-0.53,0.18,0.96,34.4,-9.97,-89.43
-0.53,0.18,0.96,34.4,-9.97,-89.43
-0.51,0.19,0.95,32.58,-11.98,-91.88
-0.49,0.2,0.96,30.75,-13.73,-93.75
-0.5,0.22,0.96,28.77,-15.21,-95.11
-0.5,0.22,0.96,26.42,-16.59,-96.35
-0.5,0.2,0.95,23.87,-17.86,-97.38
-0.5,0.2,0.95,23.87,-17.86,-97.38
-0.51,0.18,0.93,21.43,-18.99,-98.06
-0.51,0.17,0.91,19.39,-20.02,-98.37
-0.5,0.16,0.89,18.0,-21.01,-98.64
-0.5,0.16,0.88,17.37,-21.88,-98.96
-0.49,0.16,0.87,17.52,-22.58,-99.38
-0.49,0.16,0.87,17.52,-22.58,-99.38
-0.48,0.16,0.86,18.47,-23.06,-99.92
-0.47,0.17,0.86,20.2,-23.18,-100.51
-0.47,0.21,0.87,22.41,-22.94,-100.96
-0.48,0.27,0.88,24.58,-22.36,-100.84
-0.49,0.32,0.89,26.2,-21.63,-100.11
-0.49,0.32,0.89,26.2,-21.63,-100.11
-0.5,0.35,0.9,27.16,-20.89,-98.54
-0.51,0.38,0.9,27.41,-20.16,-96.11
-0.51,0.39,0.91,26.85,-19.67,-93.3
-0.52,0.4,0.9,25.4,-19.53,-90.23
-0.52,0.4,0.9,23.15,-19.71,-86.86
-0.52,0.4,0.9,23.15,-19.71,-86.86
-0.52,0.39,0.89,20.38,-20.24,-83.53
-0.5,0.38,0.89,17.17,-20.98,-80.68
-0.49,0.36,0.87,13.48,-21.77,-78.07
-0.48,0.32,0.85,9.8,-22.34,-75.19
-0.48,0.29,0.83,6.81,-22.59,-72.09
-0.48,0.29,0.83,6.81,-22.59,-72.09
-0.48,0.28,0.84,4.8,-22.56,-69.01
-0.48,0.29,0.85,3.37,-22.27,-66.32
-0.49,0.32,0.86,1.83,-21.75,-64.16
-0.48,0.31,0.85,-0.38,-21.21,-62.78
-0.43,0.22,0.79,-2.51,-20.74,-61.66
-0.43,0.22,0.79,-2.51,-20.74,-61.66
-0.41,0.14,0.75,-2.76,-19.77,-59.23
-0.43,0.14,0.77,-0.5,-18.32,-55.61
-0.44,0.17,0.8,3.24,-17.02,-52.22
-0.44,0.2,0.81,7.28,-16.03,-49.18
-0.44,0.21,0.82,10.99,-15.25,-46.31
-0.44,0.21,0.82,10.99,-15.25,-46.31
-0.43,0.21,0.82,14.0,-14.64,-43.83
-0.41,0.2,0.82,16.72,-13.97,-41.71
-0.39,0.21,0.84,19.48,-12.96,-39.33
-0.4,0.28,0.87,21.39,-11.6,-36.59
-0.43,0.35,0.89,21.38,-10.19,-34.12
-0.43,0.35,0.89,21.38,-10.19,-34.12
-0.43,0.29,0.86,19.45,-8.95,-32.58
-0.37,0.22,0.84,17.19,-7.73,-30.67
-0.47,0.32,0.86,14.37,-6.04,-26.63
-0.46,0.23,0.78,10.89,-5.24,-24.33
-0.45,0.15,0.75,9.84,-4.49,-22.73
-0.45,0.15,0.75,9.84,-4.49,-22.73
-0.52,0.27,0.87,9.41,-3.83,-21.78
-0.47,0.15,0.76,7.24,-4.75,-22.87
-0.43,-0.02,0.67,8.55,-4.89,-23.01
-0.44,-0.0,0.79,13.35,-4.18,-21.71
-0.41,0.19,0.89,18.46,-3.8,-20.31
-0.41,0.19,0.89,18.46,-3.8,-20.31
-0.44,0.38,0.93,20.69,-3.04,-18.64
-0.47,0.35,0.9,18.32,-2.65,-17.69
-0.48,0.22,0.83,14.08,-2.8,-17.1
-0.45,0.11,0.78,10.95,-2.83,-16.52
-0.43,0.09,0.79,10.08,-2.47,-15.55
-0.43,0.09,0.79,10.08,-2.47,-15.55
-0.45,0.13,0.85,10.39,-1.57,-14.01
-0.49,0.17,0.84,10.06,-0.64,-12.42
-0.51,0.14,0.81,9.0,-0.13,-11.45
-0.48,0.1,0.8,8.51,0.04,-11.16
-0.46,0.08,0.82,8.9,0.15,-10.73
-0.46,0.08,0.82,8.9,0.15,-10.73
-0.49,0.11,0.83,9.79,0.34,-9.36
-0.54,0.15,0.84,10.41,0.41,-7.88
-0.54,0.16,0.85,10.13,-0.03,-7.14
-0.53,0.15,0.84,9.0,-0.81,-6.85
-0.53,0.13,0.83,7.63,-1.63,-6.59
-0.53,0.13,0.83,7.63,-1.63,-6.59
-0.51,0.11,0.82,6.54,-2.37,-6.4
-0.51,0.11,0.83,5.9,-2.85,-5.96
-0.52,0.12,0.84,5.33,-3.09,-5.21
-0.52,0.12,0.83,4.62,-3.31,-4.68
-0.5,0.09,0.82,4.04,-3.54,-4.36
-0.5,0.09,0.82,4.04,-3.54,-4.36
-0.5,0.08,0.82,3.75,-3.76,-3.96
