ax,ay,az,gx,gy,gz
-0.05,-0.57,0.77,4.04,-0.27,0.78
-0.05,-0.57,0.77,4.04,-0.27,0.78
-0.05,-0.58,0.77,3.57,0.25,0.65
-0.04,-0.59,0.76,3.08,0.75,0.5
-0.05,-0.59,0.76,2.61,1.16,0.41
-0.05,-0.59,0.76,2.15,1.5,0.38
-0.05,-0.59,0.76,1.64,1.78,0.37
-0.05,-0.59,0.76,1.64,1.78,0.37
-0.05,-0.6,0.75,1.19,1.97,0.35
-0.05,-0.6,0.75,0.87,2.01,0.29
-0.05,-0.6,0.76,0.79,1.87,0.27
-0.05,-0.6,0.76,0.81,1.49,0.44
-0.05,-0.6,0.76,0.8,0.87,0.73
-0.05,-0.6,0.76,0.8,0.87,0.73
-0.05,-0.61,0.76,0.74,0.04,1.02
-0.05,-0.62,0.76,0.77,-0.91,1.27
-0.04,-0.62,0.76,0.99,-1.8,1.45
-0.04,-0.62,0.77,1.32,-2.47,1.51
-0.03,-0.61,0.77,1.64,-2.8,1.44
-0.03,-0.61,0.77,1.64,-2.8,1.44
-0.02,-0.62,0.77,1.8,-2.77,1.33
-0.03,-0.62,0.77,1.81,-2.38,1.16
-0.03,-0.62,0.77,1.8,-1.69,0.9
-0.04,-0.62,0.77,1.81,-0.83,0.52
-0.04,-0.61,0.77,1.83,0.07,0.07
-0.04,-0.61,0.77,1.83,0.07,0.07
-0.04,-0.61,0.77,1.89,0.83,-0.41
-0.05,-0.61,0.77,1.96,1.43,-0.87
-0.05,-0.6,0.77,1.94,1.82,-1.31
-0.05,-0.61,0.78,1.87,1.97,-1.69
-0.05,-0.61,0.78,1.83,1.9,-1.96
-0.05,-0.61,0.78,1.83,1.9,-1.96
-0.05,-0.61,0.78,1.87,1.68,-2.09
-0.05,-0.61,0.78,1.98,1.28,-2.08
-0.06,-0.61,0.78,2.19,0.64,-1.96
-0.06,-0.6,0.79,2.46,-0.21,-1.75
-0.06,-0.6,0.79,2.66,-1.22,-1.48
-0.06,-0.6,0.79,2.66,-1.22,-1.48
-0.05,-0.6,0.78,2.77,-2.2,-1.22
-0.05,-0.6,0.78,2.81,-3.05,-1.02
-0.04,-0.59,0.79,2.76,-3.73,-0.94
-0.04,-0.59,0.78,2.54,-4.18,-0.97
-0.03,-0.59,0.78,2.25,-4.4,-1.08
-0.03,-0.59,0.78,2.25,-4.4,-1.08
-0.02,-0.59,0.78,1.92,-4.34,-1.22
-0.02,-0.59,0.77,1.54,-4.02,-1.36
-0.02,-0.6,0.77,1.19,-3.45,-1.44
-0.03,-0.6,0.77,0.93,-2.78,-1.52
-0.03,-0.6,0.76,0.87,-2.09,-1.6
-0.03,-0.6,0.76,0.87,-2.09,-1.6
-0.03,-0.6,0.77,1.03,-1.44,-1.67
-0.03,-0.59,0.77,1.31,-0.79,-1.7
-0.03,-0.59,0.77,1.64,-0.3,-1.71
-0.04,-0.58,0.77,1.9,-0.02,-1.68
-0.04,-0.57,0.77,2.11,-0.02,-1.59
-0.04,-0.57,0.77,2.11,-0.02,-1.59
-0.03,-0.57,0.77,2.25,-0.28,-1.47
-0.03,-0.57,0.77,2.31,-0.77,-1.34
-0.03,-0.57,0.77,2.26,-1.38,-1.19
-0.02,-0.57,0.77,2.13,-2.0,-1.06
-0.02,-0.57,0.76,1.93,-2.57,-0.9
-0.02,-0.57,0.76,1.93,-2.57,-0.9
-0.02,-0.58,0.76,1.71,-3.03,-0.74
-0.02,-0.59,0.75,1.53,-3.34,-0.56
-0.02,-0.59,0.74,1.51,-3.56,-0.36
-0.03,-0.6,0.74,1.66,-3.65,-0.17
-0.04,-0.6,0.73,1.93,-3.68,-0.03
-0.04,-0.6,0.73,1.93,-3.68,-0.03
-0.04,-0.6,0.73,2.2,-3.63,0.05
-0.04,-0.6,0.74,2.4,-3.54,0.04
-0.04,-0.6,0.73,2.46,-3.36,-0.06
-0.05,-0.61,0.72,2.33,-3.1,-0.16
-0.06,-0.63,0.7,2.01,-2.81,-0.27
-0.06,-0.63,0.7,2.01,-2.81,-0.27
-0.07,-0.66,0.69,1.56,-2.52,-0.45
-0.08,-0.68,0.67,1.06,-2.24,-0.72
-0.09,-0.71,0.65,0.58,-1.95,-1.09
-0.1,-0.73,0.63,0.21,-1.61,-1.51
-0.1,-0.73,0.63,-0.02,-1.15,-1.99
-0.11,-0.75,0.61,-0.02,-1.15,-1.99
-0.11,-0.77,0.59,-0.02,-0.64,-2.49
-0.12,-0.78,0.57,0.22,0.01,-3.01
-0.13,-0.79,0.55,0.61,0.71,-3.55
-0.14,-0.79,0.53,1.1,1.38,-4.15
-0.14,-0.79,0.53,1.7,2.0,-4.88
-0.15,-0.79,0.5,1.7,2.0,-4.88
-0.15,-0.77,0.48,2.37,2.58,-5.86
-0.13,-0.76,0.48,2.99,3.24,-7.09
-0.12,-0.74,0.48,3.26,4.17,-8.46
-0.11,-0.72,0.47,3.0,5.47,-9.91
-0.11,-0.72,0.47,3.0,5.47,-9.91
-0.1,-0.72,0.47,2.11,7.1,-11.46
-0.08,-0.72,0.45,0.64,9.07,-13.08
-0.07,-0.73,0.46,-1.19,11.4,-14.7
-0.06,-0.74,0.47,-3.32,14.1,-16.28
-0.05,-0.76,0.48,-5.74,17.14,-17.76
-0.05,-0.76,0.48,-5.74,17.14,-17.76
-0.05,-0.78,0.49,-8.39,20.47,-19.02
-0.05,-0.81,0.49,-11.08,23.96,-20.08
-0.06,-0.83,0.5,-13.56,27.34,-21.07
-0.07,-0.86,0.51,-15.68,30.74,-22.01
-0.08,-0.89,0.54,-17.36,33.86,-22.86
-0.08,-0.89,0.54,-17.36,33.86,-22.86
-0.08,-0.91,0.56,-18.6,36.63,-23.65
-0.08,-0.93,0.58,-19.38,39.17,-24.42
-0.08,-0.96,0.61,-19.6,41.55,-25.18
-0.09,-0.98,0.64,-19.41,43.78,-26.03
-0.11,-0.99,0.66,-18.78,45.89,-27.17
-0.11,-0.99,0.66,-18.78,45.89,-27.17
-0.13,-0.98,0.68,-17.83,48.02,-28.91
-0.13,-0.98,0.71,-16.78,50.28,-31.37
-0.11,-0.97,0.74,-15.91,52.49,-34.34
-0.11,-0.96,0.76,-15.55,54.61,-37.55
-0.1,-0.95,0.77,-15.76,56.6,-40.81
-0.1,-0.95,0.77,-15.76,56.6,-40.81
-0.1,-0.96,0.78,-16.35,58.39,-44.09
-0.1,-0.96,0.79,-17.06,59.81,-47.24
-0.11,-0.96,0.8,-17.79,60.66,-50.15
-0.12,-0.95,0.81,-18.57,60.65,-52.98
-0.12,-0.94,0.82,-19.41,59.83,-55.93
-0.12,-0.94,0.82,-19.41,59.83,-55.93
-0.11,-0.95,0.82,-20.18,58.14,-59.04
-0.08,-0.97,0.82,-20.63,55.78,-62.15
-0.06,-0.97,0.82,-20.64,52.95,-65.04
-0.03,-0.96,0.82,-20.14,49.89,-67.74
-0.01,-0.95,0.82,-19.17,46.82,-70.48
-0.01,-0.95,0.82,-19.17,46.82,-70.48
0.02,-0.94,0.82,-17.84,43.9,-73.31
0.04,-0.92,0.82,-16.32,41.23,-76.09
0.06,-0.9,0.83,-14.84,38.94,-78.67
0.08,-0.88,0.84,-13.5,37.19,-81.06
0.1,-0.86,0.84,-12.28,35.95,-83.18
0.1,-0.86,0.84,-12.28,35.95,-83.18
0.12,-0.84,0.85,-11.09,35.04,-85.01
0.12,-0.83,0.85,-10.0,34.25,-86.63
0.13,-0.82,0.85,-8.95,33.43,-87.98
0.13,-0.81,0.85,-7.89,32.44,-89.08
0.14,-0.8,0.84,-6.71,31.2,-89.87
0.14,-0.8,0.84,-6.71,31.2,-89.87
0.15,-0.78,0.85,-5.36,29.63,-90.39
0.15,-0.77,0.86,-3.85,27.65,-90.74
0.16,-0.74,0.87,-2.25,25.18,-90.89
0.16,-0.72,0.89,-0.71,22.22,-90.82
0.16,-0.7,0.9,0.52,18.7,-90.37
0.16,-0.7,0.9,0.52,18.7,-90.37
0.17,-0.68,0.91,1.45,14.58,-89.66
0.18,-0.67,0.9,2.25,9.99,-88.89
0.21,-0.67,0.89,3.18,5.28,-88.05
0.25,-0.66,0.89,4.38,0.91,-87.25
0.28,-0.64,0.88,5.85,-2.57,-86.48
0.28,-0.64,0.88,5.85,-2.57,-86.48
0.3,-0.62,0.87,7.6,-5.08,-85.67
0.3,-0.59,0.9,9.5,-6.67,-84.8
0.29,-0.57,0.9,11.2,-7.4,-83.81
0.29,-0.56,0.88,12.65,-7.68,-82.51
0.28,-0.55,0.87,14.16,-7.96,-80.75
0.28,-0.55,0.87,14.16,-7.96,-80.75
0.27,-0.54,0.88,15.82,-8.66,-78.46
0.24,-0.53,0.89,17.6,-10.19,-75.6
0.2,-0.5,0.9,19.57,-12.83,-72.49
0.18,-0.47,0.89,21.58,-16.85,-69.36
0.17,-0.43,0.91,23.53,-22.62,-66.09
0.17,-0.43,0.91,23.53,-22.62,-66.09
0.19,-0.4,0.92,25.16,-29.83,-62.39
0.22,-0.37,0.96,25.99,-37.89,-58.31
0.28,-0.35,0.98,25.56,-45.75,-54.62
0.36,-0.35,0.99,23.74,-52.39,-51.76
0.42,-0.37,0.99,20.87,-57.05,-49.8
0.42,-0.37,0.99,20.87,-57.05,-49.8
0.45,-0.4,0.98,17.52,-59.44,-48.61
0.44,-0.41,0.95,13.92,-59.76,-47.85
0.41,-0.42,0.93,10.49,-58.69,-47.36
0.36,-0.41,0.93,7.59,-56.51,-46.94
0.32,-0.41,0.93,5.24,-54.01,-46.15
0.32,-0.41,0.93,5.24,-54.01,-46.15
0.27,-0.42,0.93,3.38,-51.71,-44.74
0.23,-0.45,0.92,2.07,-50.02,-42.69
0.21,-0.49,0.93,1.45,-49.22,-40.08
0.19,-0.5,0.94,1.75,-49.49,-37.33
0.18,-0.5,0.95,3.06,-50.64,-34.84
0.18,-0.5,0.95,3.06,-50.64,-34.84
0.16,-0.49,0.95,5.15,-52.48,-32.79
0.17,-0.47,0.94,7.77,-55.0,-31.24
0.2,-0.46,0.92,10.5,-57.99,-30.07
0.22,-0.42,0.91,13.37,-61.08,-28.87
0.27,-0.37,0.91,16.48,-63.17,-27.79
0.27,-0.37,0.91,16.48,-63.17,-27.79
0.33,-0.31,0.93,19.76,-63.57,-27.02
0.39,-0.27,0.96,22.62,-62.18,-26.52
0.42,-0.27,0.98,24.26,-58.96,-25.68
0.4,-0.28,0.99,24.43,-54.3,-23.91
0.34,-0.29,0.98,23.33,-49.03,-21.17
0.34,-0.29,0.98,23.33,-49.03,-21.17
0.27,-0.29,0.95,21.27,-43.73,-18.01
0.21,-0.29,0.93,18.61,-38.99,-14.9
0.15,-0.28,0.91,15.62,-35.25,-12.16
0.1,-0.27,0.89,12.67,-32.56,-10.27
0.09,-0.27,0.89,10.44,-30.68,-9.54
0.09,-0.27,0.89,10.44,-30.68,-9.54
0.13,-0.26,0.92,9.33,-29.32,-9.55
0.16,-0.23,0.98,9.14,-28.19,-9.45
0.19,-0.21,1.02,9.39,-27.17,-8.62
0.19,-0.21,1.03,9.65,-26.51,-6.78
0.19,-0.22,1.04,9.88,-26.22,-4.41
0.19,-0.22,1.04,9.88,-26.22,-4.41
0.18,-0.23,1.02,10.3,-26.0,-2.24
0.17,-0.24,0.99,10.91,-25.85,-0.67
0.16,-0.23,0.94,11.75,-26.0,0.15
0.16,-0.22,0.9,13.16,-26.55,-0.03
0.19,-0.21,0.87,15.41,-27.49,-1.16
0.19,-0.21,0.87,15.41,-27.49,-1.16
0.23,-0.21,0.88,18.53,-28.74,-2.4
0.26,-0.2,0.9,22.29,-30.03,-2.7
0.25,-0.17,0.93,26.39,-31.05,-1.57
0.22,-0.13,0.95,30.45,-31.73,0.92
0.19,-0.1,0.96,33.84,-32.25,4.33
0.19,-0.1,0.96,33.84,-32.25,4.33
0.17,-0.08,0.97,36.05,-32.95,8.24
0.16,-0.08,0.97,36.91,-34.08,12.22
0.16,-0.1,0.95,36.66,-35.7,16.04
0.19,-0.12,0.93,35.51,-37.81,19.77
0.22,-0.14,0.92,33.72,-40.22,23.56
0.22,-0.14,0.92,33.72,-40.22,23.56
0.27,-0.17,0.93,31.5,-42.37,27.38
0.31,-0.2,0.93,28.85,-43.59,31.08
0.32,-0.23,0.94,25.88,-43.54,34.6
0.3,-0.24,0.94,22.91,-42.06,37.69
0.28,-0.28,0.93,20.01,-39.18,40.01
0.28,-0.28,0.93,20.01,-39.18,40.01
0.25,-0.31,0.92,17.25,-35.14,41.78
0.22,-0.34,0.92,14.82,-30.28,42.89
0.18,-0.35,0.91,13.06,-25.26,43.36
0.14,-0.35,0.9,12.24,-20.75,43.74
0.08,-0.33,0.9,12.36,-17.39,44.68
0.08,-0.33,0.9,12.36,-17.39,44.68
0.01,-0.32,0.9,13.12,-15.83,46.35
-0.02,-0.32,0.9,14.04,-16.33,48.72
-0.03,-0.31,0.93,14.85,-18.57,51.7
-0.02,-0.31,0.94,15.19,-22.05,55.04
0.02,-0.32,0.96,14.93,-26.15,58.29
0.02,-0.32,0.96,14.93,-26.15,58.29
0.04,-0.34,0.95,14.17,-30.28,61.21
0.06,-0.38,0.93,13.1,-34.02,63.78
0.07,-0.4,0.89,12.01,-37.13,65.91
0.07,-0.43,0.86,11.11,-39.61,67.47
0.08,-0.44,0.83,10.42,-41.45,68.49
0.08,-0.44,0.83,10.42,-41.45,68.49
0.09,-0.45,0.81,10.1,-42.51,69.0
0.11,-0.45,0.8,10.18,-42.55,69.08
0.1,-0.44,0.8,10.3,-41.65,69.0
0.08,-0.44,0.79,10.07,-40.06,68.95
0.03,-0.44,0.78,9.37,-38.01,68.89
0.03,-0.44,0.78,9.37,-38.01,68.89
-0.0,-0.47,0.76,8.17,-35.85,68.61
-0.03,-0.52,0.75,6.5,-34.0,68.17
-0.05,-0.57,0.72,4.7,-32.76,67.59
-0.06,-0.61,0.69,3.23,-32.3,66.95
-0.07,-0.64,0.68,2.54,-32.7,66.43
-0.07,-0.64,0.68,2.54,-32.7,66.43
-0.07,-0.66,0.67,2.74,-33.88,66.1
-0.06,-0.65,0.66,3.84,-35.53,65.68
-0.03,-0.63,0.65,5.8,-37.22,64.85
-0.0,-0.6,0.66,8.61,-38.55,63.57
0.01,-0.58,0.66,11.81,-39.41,62.09
0.01,-0.58,0.66,11.81,-39.41,62.09
0.01,-0.55,0.66,14.92,-39.85,60.86
-0.02,-0.53,0.67,17.59,-39.81,60.06
-0.05,-0.51,0.67,19.64,-39.18,59.29
-0.07,-0.52,0.66,20.94,-37.93,57.77
-0.06,-0.55,0.65,21.77,-36.71,55.37
-0.06,-0.55,0.65,21.77,-36.71,55.37
-0.07,-0.56,0.69,22.56,-36.17,52.9
-0.1,-0.55,0.71,23.42,-36.33,51.01
-0.12,-0.53,0.71,24.02,-37.06,49.7
-0.11,-0.51,0.7,24.03,-38.61,48.54
-0.07,-0.5,0.7,23.36,-40.86,47.25
-0.07,-0.5,0.7,23.36,-40.86,47.25
-0.02,-0.52,0.71,22.06,-43.25,45.99
0.02,-0.56,0.7,20.07,-45.24,45.27
0.04,-0.59,0.67,17.56,-46.68,45.41
0.04,-0.62,0.63,14.93,-47.37,46.36
0.03,-0.63,0.61,12.65,-47.29,47.77
0.03,-0.63,0.61,12.65,-47.29,47.77
0.02,-0.64,0.6,10.91,-46.34,49.12
0.03,-0.65,0.61,9.56,-44.54,49.95
0.05,-0.66,0.62,8.43,-41.93,50.15
0.07,-0.66,0.64,7.43,-38.34,49.84
0.08,-0.68,0.65,6.4,-33.59,49.2
0.08,-0.68,0.65,6.4,-33.59,49.2
0.07,-0.68,0.65,5.26,-27.76,48.09
0.05,-0.68,0.65,4.06,-21.14,46.33
0.02,-0.68,0.65,2.9,-14.29,43.81
-0.02,-0.67,0.64,1.7,-7.63,40.75
-0.05,-0.66,0.63,0.36,-1.63,37.4
-0.05,-0.66,0.63,0.36,-1.63,37.4
-0.06,-0.65,0.62,-1.22,3.31,34.08
-0.05,-0.65,0.61,-3.11,6.89,31.33
-0.04,-0.67,0.61,-5.05,8.99,29.86
-0.04,-0.69,0.62,-6.77,9.6,30.13
-0.07,-0.7,0.62,-8.11,8.83,32.25
-0.07,-0.7,0.62,-8.11,8.83,32.25
-0.1,-0.72,0.63,-8.92,6.83,35.79
-0.13,-0.74,0.61,-9.22,3.74,39.86
-0.13,-0.76,0.6,-9.05,-0.32,43.83
-0.11,-0.77,0.59,-8.35,-4.96,47.19
-0.08,-0.77,0.59,-7.08,-9.55,49.63
-0.08,-0.77,0.59,-7.08,-9.55,49.63
-0.05,-0.76,0.58,-5.19,-13.58,51.14
-0.02,-0.75,0.59,-2.8,-16.72,52.0
-0.03,-0.72,0.6,-0.26,-18.66,52.46
-0.04,-0.7,0.6,1.99,-19.42,52.24
-0.03,-0.68,0.6,3.56,-19.11,51.1
-0.03,-0.68,0.6,3.56,-19.11,51.1
-0.01,-0.68,0.6,4.31,-17.92,49.2
0.01,-0.68,0.62,4.18,-15.95,47.05
0.03,-0.7,0.62,3.08,-13.25,45.04
0.04,-0.72,0.6,1.1,-9.95,43.34
0.04,-0.74,0.58,-1.29,-6.44,42.14
0.04,-0.74,0.58,-1.29,-6.44,42.14
0.02,-0.76,0.54,-3.6,-2.99,41.53
0.0,-0.77,0.51,-5.34,0.04,41.51
-0.0,-0.78,0.48,-6.18,2.58,41.91
0.01,-0.78,0.46,-6.03,4.36,42.84
-0.0,-0.77,0.47,-4.96,5.07,44.44
-0.0,-0.77,0.47,-4.96,5.07,44.44
-0.03,-0.73,0.48,-3.27,4.92,46.62
-0.05,-0.7,0.5,-1.33,4.08,48.91
-0.08,-0.67,0.51,0.47,2.7,50.83
-0.09,-0.66,0.52,2.03,0.96,52.2
-0.09,-0.66,0.53,3.26,-0.78,52.87
-0.09,-0.66,0.53,3.26,-0.78,52.87
-0.06,-0.68,0.54,4.13,-2.22,52.95
-0.02,-0.69,0.55,4.7,-3.12,52.91
-0.0,-0.71,0.58,4.89,-3.14,53.07
-0.01,-0.72,0.58,4.63,-2.02,53.35
-0.04,-0.74,0.57,3.96,0.29,53.11
-0.04,-0.74,0.57,3.96,0.29,53.11
-0.05,-0.78,0.54,2.83,3.51,51.77
-0.05,-0.82,0.53,1.34,7.24,49.32
-0.03,-0.84,0.52,-0.21,11.22,46.05
-0.01,-0.86,0.51,-1.42,15.36,42.49
-0.01,-0.84,0.5,-1.99,19.17,39.25
-0.01,-0.84,0.5,-1.99,19.17,39.25
-0.02,-0.82,0.5,-1.96,22.18,36.76
-0.04,-0.78,0.51,-1.49,24.0,35.48
-0.08,-0.75,0.52,-0.97,24.25,35.73
-0.13,-0.74,0.54,-0.77,22.74,37.45
-0.16,-0.75,0.53,-0.97,19.57,39.85
-0.16,-0.75,0.53,-0.97,19.57,39.85
-0.16,-0.79,0.53,-1.16,15.42,42.06
-0.13,-0.83,0.55,-0.79,10.91,43.87
-0.09,-0.85,0.57,0.35,6.63,45.32
-0.06,-0.86,0.59,2.09,3.14,46.47
-0.06,-0.85,0.61,4.05,0.63,47.12
-0.06,-0.85,0.61,4.05,0.63,47.12
-0.08,-0.84,0.62,5.9,-1.04,47.15
-0.08,-0.83,0.6,7.39,-2.21,46.49
-0.07,-0.82,0.6,8.4,-3.27,45.53
-0.01,-0.83,0.63,8.78,-4.18,44.66
0.04,-0.84,0.65,8.16,-4.66,44.04
0.04,-0.84,0.65,8.16,-4.66,44.04
0.06,-0.86,0.67,6.55,-4.17,43.55
0.06,-0.89,0.66,4.22,-2.73,43.1
0.03,-0.93,0.64,1.59,-0.92,42.85
-0.0,-0.97,0.63,-0.97,0.74,42.45
-0.03,-1.01,0.62,-3.29,2.0,41.75
-0.03,-1.01,0.62,-3.29,2.0,41.75
-0.06,-1.04,0.6,-5.21,2.61,40.78
-0.07,-1.06,0.58,-6.39,2.6,39.23
-0.06,-1.08,0.56,-6.38,2.16,36.99
-0.02,-1.08,0.56,-5.13,1.48,34.41
0.02,-1.07,0.57,-2.9,0.73,32.0
0.02,-1.07,0.57,-2.9,0.73,32.0
0.04,-1.06,0.58,-0.04,0.2,29.97
0.06,-1.04,0.58,3.21,0.07,28.23
0.06,-1.01,0.59,6.67,0.54,26.64
0.07,-0.97,0.59,10.09,1.73,25.08
0.08,-0.94,0.61,13.29,3.63,23.51
0.08,-0.94,0.61,13.29,3.63,23.51
0.08,-0.9,0.62,15.9,6.09,21.98
0.07,-0.87,0.64,17.64,8.91,20.63
0.06,-0.85,0.66,18.37,11.95,19.42
0.04,-0.84,0.66,18.09,15.0,18.26
0.01,-0.84,0.65,16.89,17.76,17.1
0.01,-0.84,0.65,16.89,17.76,17.1
-0.0,-0.85,0.65,15.05,20.0,15.84
-0.02,-0.87,0.65,12.81,21.6,14.4
-0.04,-0.89,0.64,10.46,22.66,12.59
-0.05,-0.89,0.64,8.24,23.38,10.04
-0.03,-0.89,0.63,6.31,24.11,6.51
-0.03,-0.89,0.63,6.31,24.11,6.51
0.01,-0.87,0.63,4.76,24.94,2.28
0.04,-0.84,0.64,3.41,25.81,-2.05
0.06,-0.81,0.63,2.03,26.77,-6.15
0.09,-0.79,0.64,0.42,27.75,-9.77
0.11,-0.79,0.65,-1.46,28.79,-12.7
0.11,-0.79,0.65,-1.46,28.79,-12.7
0.13,-0.8,0.65,-3.58,29.94,-14.72
0.14,-0.83,0.66,-5.79,31.35,-15.87
0.15,-0.85,0.66,-7.87,33.28,-16.38
0.15,-0.88,0.69,-9.86,35.81,-16.57
0.15,-0.88,0.69,-12.03,38.81,-16.91
0.14,-0.94,0.68,-12.03,38.81,-16.91
0.19,-1.04,0.62,-12.97,42.39,-16.73
0.08,-0.94,0.68,-13.16,46.1,-13.74
-0.03,-0.94,0.69,-13.09,49.7,-13.26
-0.03,-1.0,0.65,-12.26,53.01,-17.31
-0.03,-1.0,0.65,-11.08,55.57,-22.27
0.03,-1.06,0.63,-11.08,55.57,-22.27
0.05,-1.02,0.66,-9.12,57.49,-25.73
0.07,-0.91,0.7,-6.94,59.15,-28.93
0.07,-0.8,0.74,-5.75,60.73,-32.27
0.07,-0.75,0.75,-6.44,61.88,-36.04
0.07,-0.75,0.75,-6.44,61.88,-36.04
0.09,-0.77,0.71,-8.6,62.68,-40.16
0.13,-0.82,0.67,-11.42,63.18,-43.7
0.13,-0.82,0.67,-14.19,63.37,-45.67
0.13,-0.85,0.66,-16.48,63.28,-47.0
0.14,-0.89,0.64,-17.7,63.31,-48.43
0.14,-0.89,0.64,-17.7,63.31,-48.43
0.15,-0.92,0.65,-17.73,63.63,-49.55
0.15,-0.94,0.66,-16.58,64.44,-50.21
0.14,-0.92,0.66,-14.23,65.85,-50.77
0.12,-0.91,0.68,-10.91,67.65,-51.42
0.11,-0.88,0.7,-6.97,69.75,-52.16
0.11,-0.88,0.7,-6.97,69.75,-52.16
0.08,-0.84,0.71,-2.89,71.95,-53.04
0.04,-0.81,0.72,1.11,73.95,-54.36
-0.0,-0.78,0.72,5.02,75.34,-56.32
-0.03,-0.74,0.73,8.78,75.73,-59.18
-0.03,-0.68,0.75,12.12,74.99,-62.8
-0.03,-0.68,0.75,12.12,74.99,-62.8
-0.01,-0.64,0.79,14.71,73.22,-66.68
0.02,-0.61,0.82,16.16,70.71,-70.44
0.04,-0.6,0.83,16.44,67.69,-73.69
0.06,-0.61,0.83,15.73,64.65,-76.19
0.05,-0.61,0.84,14.32,61.8,-77.77
0.05,-0.61,0.84,14.32,61.8,-77.77
0.04,-0.61,0.84,12.57,59.45,-78.94
0.02,-0.62,0.83,10.93,57.66,-80.0
-0.0,-0.63,0.83,9.82,56.26,-80.8
-0.01,-0.63,0.83,9.5,55.17,-81.35
-0.01,-0.62,0.84,10.05,54.43,-81.61
-0.01,-0.62,0.84,10.05,54.43,-81.61
-0.01,-0.59,0.85,11.24,54.07,-81.59
-0.02,-0.57,0.86,12.81,53.94,-81.29
-0.04,-0.55,0.87,14.56,53.74,-80.67
-0.07,-0.53,0.87,16.39,53.15,-79.75
-0.07,-0.52,0.87,18.34,51.97,-78.56
-0.07,-0.52,0.87,18.34,51.97,-78.56
-0.07,-0.51,0.88,20.42,50.18,-76.98
-0.08,-0.49,0.88,22.49,47.85,-74.98
-0.09,-0.48,0.89,24.48,44.92,-72.73
-0.09,-0.48,0.89,26.36,41.36,-70.48
-0.09,-0.48,0.89,28.04,37.21,-68.19
-0.09,-0.48,0.89,28.04,37.21,-68.19
-0.09,-0.48,0.89,29.48,32.57,-66.01
-0.1,-0.48,0.89,30.57,27.52,-64.17
-0.1,-0.49,0.88,31.38,22.05,-62.92
-0.08,-0.48,0.87,32.02,16.15,-62.24
-0.05,-0.46,0.87,32.58,10.12,-62.07
-0.05,-0.46,0.87,32.58,10.12,-62.07
-0.0,-0.43,0.88,32.89,4.55,-62.33
0.06,-0.41,0.89,32.59,0.05,-62.91
0.11,-0.4,0.89,31.41,-2.88,-63.46
0.15,-0.4,0.89,29.22,-3.91,-63.62
0.16,-0.42,0.88,26.01,-3.1,-63.46
0.16,-0.42,0.88,26.01,-3.1,-63.46
0.15,-0.46,0.84,22.59,-0.67,-63.0
0.12,-0.5,0.83,19.66,2.92,-62.04
0.1,-0.53,0.81,17.7,7.06,-60.68
0.07,-0.54,0.81,16.95,11.18,-58.54
0.04,-0.56,0.81,17.47,14.82,-55.87
0.04,-0.56,0.81,17.47,14.82,-55.87
0.0,-0.56,0.82,19.29,17.55,-52.69
-0.03,-0.54,0.83,22.21,18.93,-49.17
-0.05,-0.5,0.85,25.84,18.95,-45.26
-0.05,-0.47,0.87,29.57,17.45,-41.27
-0.07,-0.41,0.89,32.8,14.74,-37.13
-0.07,-0.41,0.89,32.8,14.74,-37.13
-0.05,-0.41,0.89,35.19,11.1,-33.82
-0.02,-0.39,0.9,36.46,7.17,-30.6
-0.01,-0.34,0.92,36.05,3.19,-27.28
0.02,-0.36,0.9,34.1,-0.48,-24.67
0.04,-0.37,0.88,31.17,-3.49,-22.45
0.04,-0.37,0.88,31.17,-3.49,-22.45
0.07,-0.41,0.88,27.28,-5.82,-20.33
0.07,-0.42,0.87,22.62,-7.15,-17.9
0.07,-0.46,0.84,17.67,-7.65,-15.93
0.07,-0.51,0.81,13.19,-7.39,-14.1
0.05,-0.54,0.79,9.44,-6.8,-12.17
0.05,-0.54,0.79,9.44,-6.8,-12.17
0.07,-0.59,0.76,7.03,-6.01,-11.05
0.09,-0.62,0.74,6.04,-5.0,-9.48
0.06,-0.61,0.75,6.44,-4.25,-7.06
0.06,-0.6,0.75,8.13,-3.69,-5.32
0.05,-0.55,0.77,10.51,-3.41,-3.84
0.05,-0.55,0.77,10.51,-3.41,-3.84
0.05,-0.51,0.8,12.43,-3.45,-2.32
0.06,-0.49,0.8,13.68,-3.67,-0.88
