ax,ay,az,gx,gy,gz
-0.03,-0.04,1.0,-1.95,-1.66,1.95
-0.03,-0.04,1.0,-2.25,-1.57,1.86
-0.03,-0.05,1.0,-2.54,-1.37,1.75
-0.03,-0.06,1.0,-2.77,-1.05,1.66
-0.04,-0.06,0.99,-2.91,-0.73,1.56
-0.04,-0.06,0.99,-2.91,-0.73,1.56
-0.04,-0.06,0.99,-2.87,-0.47,1.44
-0.04,-0.06,0.99,-2.68,-0.32,1.32
-0.04,-0.05,0.99,-2.36,-0.27,1.24
-0.04,-0.05,0.99,-1.96,-0.31,1.15
-0.03,-0.04,0.99,-1.59,-0.35,1.09
-0.03,-0.04,0.99,-1.59,-0.35,1.09
-0.03,-0.04,0.99,-1.29,-0.37,1.1
-0.03,-0.04,0.99,-1.09,-0.36,1.14
-0.03,-0.04,0.99,-0.95,-0.33,1.25
-0.03,-0.04,0.99,-0.81,-0.28,1.41
-0.03,-0.04,0.99,-0.64,-0.23,1.61
-0.03,-0.04,0.99,-0.64,-0.23,1.61
-0.02,-0.05,0.98,-0.48,-0.12,1.83
-0.02,-0.06,0.98,-0.29,0.08,2.07
-0.02,-0.06,0.98,0.02,0.35,2.33
-0.02,-0.07,0.98,0.47,0.65,2.56
-0.02,-0.07,0.98,1.09,1.02,2.72
-0.03,-0.06,0.98,1.09,1.02,2.72
-0.03,-0.06,0.98,1.85,1.43,2.79
-0.04,-0.05,0.99,2.68,1.78,2.75
-0.05,-0.04,0.99,3.51,2.1,2.6
-0.05,-0.02,1.0,4.21,2.3,2.35
-0.05,-0.02,1.0,4.21,2.3,2.35
-0.06,-0.01,1.01,4.59,2.33,2.01
-0.05,-0.0,1.02,4.54,2.21,1.63
-0.05,0.0,1.02,4.09,1.98,1.27
-0.05,0.0,1.02,3.27,1.7,0.94
-0.05,0.0,1.02,2.19,1.42,0.66
-0.05,0.0,1.02,2.19,1.42,0.66
-0.04,-0.01,1.01,0.99,1.18,0.41
-0.04,-0.02,1.01,-0.18,1.09,0.19
-0.04,-0.02,1.01,-1.16,1.14,0.0
-0.05,-0.02,1.0,-1.87,1.3,-0.11
-0.05,-0.02,1.01,-2.26,1.51,-0.15
-0.05,-0.02,1.01,-2.26,1.51,-0.15
-0.05,-0.02,1.01,-2.48,1.69,-0.14
-0.06,-0.02,1.01,-2.58,1.78,-0.12
-0.05,-0.02,1.01,-2.51,1.74,-0.01
-0.06,-0.02,1.01,-2.28,1.55,0.2
-0.05,-0.01,1.01,-1.99,1.26,0.47
-0.05,-0.01,1.01,-1.99,1.26,0.47
-0.05,-0.01,1.01,-1.75,0.88,0.78
-0.05,-0.02,1.01,-1.52,0.51,1.07
-0.05,-0.02,1.0,-1.34,0.2,1.31
-0.04,-0.02,1.0,-1.17,-0.09,1.47
-0.04,-0.02,1.0,-0.94,-0.32,1.6
-0.04,-0.02,1.0,-0.94,-0.32,1.6
-0.03,-0.02,1.0,-0.74,-0.49,1.71
-0.03,-0.02,1.0,-0.65,-0.59,1.83
-0.03,-0.02,1.0,-0.78,-0.59,1.98
-0.03,-0.03,0.99,-0.98,-0.52,2.1
-0.03,-0.03,0.99,-1.14,-0.41,2.19
-0.03,-0.03,0.99,-1.14,-0.41,2.19
-0.03,-0.03,0.99,-1.22,-0.25,2.28
-0.03,-0.03,1.0,-1.25,-0.09,2.4
-0.03,-0.03,1.0,-1.25,-0.0,2.53
-0.04,-0.03,1.0,-1.26,0.05,2.66
-0.04,-0.03,0.99,-1.2,0.06,2.76
-0.04,-0.03,0.99,-1.2,0.06,2.76
-0.04,-0.03,1.0,-1.04,0.04,2.81
-0.04,-0.03,1.0,-0.8,0.01,2.8
-0.03,-0.02,1.0,-0.6,0.02,2.79
-0.03,-0.02,1.0,-0.44,0.07,2.82
-0.04,-0.01,1.0,-0.29,0.08,2.89
-0.04,-0.01,1.0,-0.29,0.08,2.89
-0.05,-0.01,1.0,-0.19,0.09,2.97
-0.05,-0.01,1.0,-0.18,0.03,3.02
-0.05,-0.01,1.0,-0.25,-0.11,3.05
-0.04,-0.01,1.0,-0.35,-0.26,3.12
-0.04,-0.02,1.0,-0.39,-0.41,3.21
-0.04,-0.02,1.0,-0.39,-0.41,3.21
-0.04,-0.01,0.99,-0.35,-0.54,3.36
-0.05,-0.01,0.99,-0.27,-0.64,3.56
-0.04,-0.01,0.99,-0.21,-0.73,3.81
-0.04,-0.02,0.99,-0.18,-0.79,4.08
-0.04,-0.02,0.98,-0.12,-0.73,4.36
-0.04,-0.02,0.98,-0.12,-0.73,4.36
-0.04,-0.02,0.97,0.0,-0.53,4.65
-0.05,-0.03,0.96,0.23,-0.26,5.0
-0.06,-0.03,0.96,0.5,0.05,5.36
-0.07,-0.03,0.95,0.78,0.4,5.74
-0.09,-0.05,0.95,1.04,0.84,6.08
-0.09,-0.05,0.95,1.04,0.84,6.08
-0.11,-0.06,0.94,1.29,1.39,6.42
-0.14,-0.08,0.94,1.5,2.02,6.78
-0.16,-0.1,0.92,1.71,2.73,7.13
-0.17,-0.13,0.91,1.96,3.59,7.45
-0.19,-0.16,0.9,2.32,4.73,7.86
-0.19,-0.16,0.9,2.32,4.73,7.86
-0.21,-0.19,0.91,2.78,6.18,8.46
-0.22,-0.22,0.9,3.17,8.02,9.29
-0.25,-0.27,0.89,3.45,10.24,10.41
-0.26,-0.3,0.89,3.67,12.83,11.78
-0.24,-0.34,0.89,3.8,15.94,13.33
-0.24,-0.34,0.89,3.8,15.94,13.33
-0.2,-0.36,0.91,3.62,19.77,15.23
-0.19,-0.37,0.93,2.67,24.53,17.72
-0.2,-0.37,0.94,0.55,30.13,20.69
-0.24,-0.36,0.93,-3.11,36.2,23.81
-0.31,-0.37,0.92,-8.37,42.22,26.68
-0.31,-0.37,0.92,-8.37,42.22,26.68
-0.43,-0.4,0.92,-15.3,47.42,28.37
-0.54,-0.44,0.9,-24.05,50.96,27.25
-0.59,-0.52,0.84,-34.11,52.28,22.34
-0.56,-0.64,0.8,-44.51,51.05,14.03
-0.49,-0.75,0.8,-54.16,47.72,3.58
-0.49,-0.75,0.8,-54.16,47.72,3.58
-0.43,-0.82,0.82,-62.21,43.22,-7.63
-0.37,-0.86,0.86,-68.55,38.28,-18.65
-0.31,-0.9,0.91,-73.83,33.68,-29.0
-0.3,-0.92,0.98,-78.41,30.25,-38.53
-0.22,-1.01,1.01,-82.71,28.01,-47.36
-0.22,-1.01,1.01,-82.71,28.01,-47.36
-0.2,-1.09,1.04,-86.31,27.29,-55.08
-0.22,-1.13,1.04,-87.85,28.33,-62.0
-0.25,-1.16,1.03,-86.96,30.42,-68.65
-0.25,-1.17,1.04,-84.22,32.42,-75.21
-0.23,-1.18,1.07,-79.99,34.01,-81.79
-0.23,-1.18,1.07,-79.99,34.01,-81.79
-0.2,-1.2,1.08,-74.29,35.22,-88.37
-0.18,-1.2,1.08,-67.04,35.75,-94.98
-0.16,-1.18,1.08,-58.07,35.41,-101.49
-0.14,-1.12,1.11,-47.44,33.99,-107.73
-0.12,-1.04,1.17,-35.93,31.43,-113.42
-0.12,-1.04,1.17,-35.93,31.43,-113.42
-0.13,-0.91,1.26,-25.3,27.72,-118.73
-0.1,-0.85,1.28,-16.46,23.31,-125.4
-0.11,-0.75,1.27,-7.92,19.26,-132.41
-0.12,-0.62,1.3,0.55,15.67,-140.07
-0.11,-0.48,1.33,8.38,12.14,-147.8
-0.11,-0.48,1.33,8.38,12.14,-147.8
-0.04,-0.37,1.34,15.16,8.59,-155.33
0.04,-0.28,1.35,20.96,5.26,-161.86
0.13,-0.19,1.37,25.73,2.22,-167.09
0.22,-0.11,1.39,29.31,-0.36,-170.84
0.28,-0.02,1.38,31.55,-2.56,-172.94
0.28,-0.02,1.38,31.55,-2.56,-172.94
0.32,0.04,1.35,32.59,-4.66,-173.83
0.36,0.1,1.31,33.13,-6.89,-173.61
0.37,0.16,1.28,33.95,-9.26,-171.97
0.36,0.24,1.26,35.53,-11.9,-168.99
0.34,0.33,1.25,37.88,-14.94,-165.13
0.34,0.33,1.25,37.88,-14.94,-165.13
0.33,0.4,1.25,40.84,-18.56,-160.96
0.32,0.45,1.27,44.12,-22.65,-156.59
0.32,0.5,1.28,47.25,-26.99,-152.07
0.33,0.55,1.3,49.88,-31.34,-147.75
0.36,0.59,1.31,51.9,-35.48,-143.97
0.36,0.59,1.31,51.9,-35.48,-143.97
0.37,0.62,1.32,53.49,-38.83,-140.14
0.37,0.67,1.31,54.68,-40.99,-135.78
0.35,0.73,1.3,55.2,-42.05,-131.16
0.35,0.78,1.28,54.55,-42.51,-126.78
0.35,0.81,1.27,52.18,-42.75,-122.71
0.35,0.81,1.27,52.18,-42.75,-122.71
0.36,0.8,1.27,47.71,-42.99,-118.96
0.36,0.75,1.24,40.94,-43.22,-115.44
0.37,0.68,1.18,32.7,-43.32,-112.4
0.36,0.61,1.1,24.52,-42.98,-109.64
0.34,0.58,1.04,17.69,-42.23,-107.09
0.34,0.58,1.04,17.69,-42.23,-107.09
0.37,0.41,1.06,12.7,-41.26,-105.06
0.64,0.19,0.75,6.58,-35.89,-103.97
0.84,0.16,0.44,6.04,-25.05,-96.28
0.81,0.51,-0.01,24.33,-9.92,-76.93
0.22,1.19,-0.02,68.32,6.35,-51.13
0.22,1.19,-0.02,68.32,6.35,-51.13
-0.83,1.76,1.05,133.1,14.93,-27.87
-1.13,2.01,1.97,189.32,25.29,-22.53
-0.79,2.03,1.97,207.72,14.44,-32.94
-0.26,1.97,1.17,185.41,-18.06,-47.71
0.1,1.48,0.57,149.08,-47.75,-59.92
0.1,1.48,0.57,149.08,-47.75,-59.92
0.29,1.13,0.56,110.7,-69.8,-63.94
0.35,1.0,0.76,72.1,-82.15,-61.26
0.51,0.73,0.8,32.28,-83.67,-58.53
0.57,0.58,0.94,-2.44,-73.16,-53.92
0.45,0.61,0.93,-26.55,-46.92,-44.82
0.45,0.61,0.93,-26.55,-46.92,-44.82
0.05,0.65,0.9,-35.66,-10.11,-33.36
-0.31,0.76,0.84,-27.56,26.09,-21.51
-0.4,1.06,0.61,-9.75,61.45,-10.25
-0.69,1.48,0.65,9.1,92.14,1.28
-1.12,1.87,1.0,21.87,109.39,11.18
-1.12,1.87,1.0,21.87,109.39,11.18
-1.16,1.88,1.04,19.21,111.48,16.22
-1.02,1.51,0.93,0.32,102.6,20.87
-0.98,1.21,0.93,-26.11,87.29,30.25
-0.75,0.95,0.97,-53.36,68.07,38.42
-0.47,0.64,1.06,-79.62,47.61,43.7
-0.47,0.64,1.06,-79.62,47.61,43.7
-0.34,0.37,1.13,-103.16,30.2,51.08
-0.28,0.1,1.09,-120.75,19.7,60.72
-0.31,-0.11,0.96,-131.38,16.08,70.93
-0.41,-0.24,0.79,-136.01,15.33,79.78
-0.54,-0.26,0.66,-135.06,14.33,86.47
-0.54,-0.26,0.66,-135.06,14.33,86.47
-0.59,-0.27,0.6,-129.6,11.05,90.15
-0.56,-0.26,0.61,-120.6,5.18,92.37
-0.52,-0.21,0.69,-109.29,-2.04,94.2
-0.45,-0.18,0.79,-97.67,-9.3,94.81
-0.41,-0.13,0.86,-87.53,-15.62,95.0
-0.41,-0.13,0.86,-87.53,-15.62,95.0
-0.4,-0.1,0.83,-79.91,-20.42,95.6
-0.41,-0.09,0.71,-74.5,-24.04,96.81
-0.43,-0.12,0.56,-69.49,-27.13,98.56
-0.43,-0.14,0.45,-63.14,-30.14,100.59
-0.44,-0.12,0.4,-54.84,-33.31,102.43
-0.44,-0.12,0.4,-54.84,-33.31,102.43
-0.43,-0.1,0.41,-44.95,-36.63,103.63
-0.4,-0.07,0.43,-34.37,-39.62,104.05
-0.35,-0.02,0.46,-24.01,-41.62,104.11
-0.31,0.01,0.49,-14.84,-42.18,104.39
-0.29,0.03,0.53,-7.5,-41.25,105.99
-0.29,0.03,0.53,-7.5,-41.25,105.99
-0.31,0.05,0.54,-1.99,-38.87,109.0
-0.32,0.04,0.53,1.91,-35.28,111.9
-0.33,-0.0,0.51,4.72,-30.82,115.04
-0.38,-0.03,0.51,7.43,-25.74,119.56
-0.44,-0.04,0.52,10.41,-20.4,124.4
-0.44,-0.04,0.52,10.41,-20.4,124.4
-0.52,-0.04,0.56,12.8,-15.71,128.11
-0.56,-0.04,0.59,13.71,-12.57,130.52
-0.58,-0.05,0.61,12.94,-10.96,131.92
-0.57,-0.07,0.61,10.69,-10.55,132.66
-0.54,-0.13,0.61,7.63,-11.1,133.13
-0.54,-0.13,0.61,7.63,-11.1,133.13
-0.49,-0.2,0.61,5.21,-11.86,134.39
-0.48,-0.24,0.62,4.84,-11.64,137.07
-0.5,-0.22,0.66,6.53,-10.2,139.69
-0.49,-0.22,0.72,9.15,-8.23,141.04
-0.49,-0.24,0.76,11.82,-6.04,142.46
-0.49,-0.24,0.76,11.82,-6.04,142.46
-0.52,-0.23,0.8,14.39,-3.24,144.76
-0.56,-0.23,0.82,16.67,-0.14,146.45
-0.59,-0.24,0.84,18.54,2.55,147.02
-0.64,-0.25,0.86,20.03,4.56,147.44
-0.7,-0.26,0.88,20.91,5.48,147.66
-0.7,-0.26,0.88,20.91,5.48,147.66
-0.74,-0.27,0.89,21.07,4.84,146.84
-0.73,-0.27,0.88,20.69,2.64,144.65
-0.71,-0.27,0.86,20.24,-0.6,141.88
-0.67,-0.26,0.85,19.99,-4.6,139.09
-0.64,-0.25,0.86,19.82,-9.03,136.56
-0.64,-0.25,0.86,19.82,-9.03,136.56
-0.61,-0.25,0.89,19.47,-13.35,134.54
-0.58,-0.23,0.91,18.7,-17.05,133.09
-0.55,-0.21,0.93,16.96,-19.81,131.95
-0.53,-0.21,0.92,14.04,-21.53,131.12
-0.52,-0.22,0.91,10.49,-22.04,130.78
-0.52,-0.22,0.91,10.49,-22.04,130.78
-0.52,-0.24,0.89,6.98,-21.27,130.78
-0.53,-0.25,0.88,3.91,-19.23,130.85
-0.54,-0.27,0.89,1.29,-16.29,130.72
-0.54,-0.28,0.9,-1.29,-12.77,130.19
-0.52,-0.32,0.91,-4.19,-8.92,129.1
-0.52,-0.32,0.91,-4.19,-8.92,129.1
-0.49,-0.36,0.92,-7.24,-4.72,127.59
-0.48,-0.4,0.93,-10.2,0.17,126.0
-0.47,-0.44,0.92,-12.89,5.58,124.41
-0.48,-0.47,0.91,-15.04,10.95,122.86
-0.51,-0.49,0.92,-16.34,16.32,121.39
-0.51,-0.49,0.92,-16.34,16.32,121.39
-0.53,-0.5,0.93,-16.95,21.34,119.7
-0.54,-0.5,0.95,-17.37,25.44,117.28
-0.53,-0.49,0.97,-17.85,28.44,114.29
-0.52,-0.47,0.99,-18.5,30.41,111.14
-0.52,-0.44,1.01,-19.54,31.32,108.03
-0.52,-0.44,1.01,-19.54,31.32,108.03
-0.5,-0.45,1.02,-21.09,31.1,104.86
-0.49,-0.44,1.04,-23.27,29.99,102.1
-0.51,-0.43,1.04,-26.14,28.2,99.34
-0.47,-0.48,1.01,-29.26,26.02,95.62
-0.41,-0.55,0.99,-31.72,23.89,92.28
-0.41,-0.55,0.99,-31.72,23.89,92.28
-0.41,-0.56,1.03,-33.7,21.88,90.81
-0.4,-0.57,1.02,-35.43,20.4,89.48
-0.39,-0.61,0.98,-36.21,19.93,87.46
-0.37,-0.7,0.95,-35.63,20.02,85.01
-0.35,-0.78,0.95,-32.89,20.81,82.89
-0.35,-0.78,0.95,-32.89,20.81,82.89
-0.35,-0.81,0.99,-27.92,22.37,81.13
-0.34,-0.81,1.05,-21.74,24.51,78.76
-0.32,-0.78,1.08,-15.75,26.82,75.1
-0.29,-0.76,1.07,-10.64,28.87,70.28
-0.28,-0.73,1.04,-6.05,30.52,65.14
-0.28,-0.73,1.04,-6.05,30.52,65.14
-0.27,-0.7,1.04,-2.01,31.61,59.81
-0.23,-0.75,1.02,1.52,31.84,54.03
-0.18,-0.77,0.98,5.86,31.99,49.29
-0.23,-0.8,0.91,11.6,32.13,47.34
-0.32,-0.71,0.92,20.39,32.23,46.31
-0.32,-0.71,0.92,20.39,32.23,46.31
-0.31,-0.63,1.03,29.36,32.26,42.74
-0.29,-0.59,1.12,37.07,31.13,38.67
-0.32,-0.55,1.12,43.58,30.37,35.07
-0.35,-0.5,1.1,48.45,29.88,30.83
-0.35,-0.47,1.11,51.78,28.69,25.49
-0.35,-0.47,1.11,51.78,28.69,25.49
-0.3,-0.49,1.13,54.03,26.84,19.68
-0.3,-0.43,1.17,55.13,24.95,14.62
-0.33,-0.37,1.18,53.88,22.89,9.61
-0.32,-0.35,1.14,50.72,20.21,3.51
-0.29,-0.35,1.1,46.73,17.22,-3.64
-0.29,-0.35,1.1,46.73,17.22,-3.64
-0.24,-0.34,1.08,42.68,14.16,-11.27
-0.21,-0.33,1.08,38.96,11.27,-18.71
-0.19,-0.29,1.1,35.24,8.58,-25.39
-0.17,-0.26,1.11,30.94,6.15,-31.21
-0.17,-0.25,1.1,26.0,3.9,-36.58
-0.17,-0.25,1.1,26.0,3.9,-36.58
-0.16,-0.27,1.09,20.69,1.8,-41.53
-0.18,-0.3,1.06,15.48,-0.25,-45.84
-0.2,-0.33,1.04,10.94,-2.37,-49.85
-0.19,-0.31,1.05,7.62,-4.51,-53.97
-0.17,-0.29,1.06,5.18,-6.37,-57.66
-0.17,-0.29,1.06,5.18,-6.37,-57.66
-0.18,-0.28,1.03,3.99,-8.1,-60.45
-0.17,-0.16,1.05,4.02,-9.51,-63.56
-0.07,-0.09,1.09,3.26,-10.73,-68.88
0.02,-0.07,1.1,1.64,-11.72,-73.83
0.02,-0.09,1.03,-0.29,-11.89,-77.03
0.02,-0.09,1.03,-0.29,-11.89,-77.03
0.02,-0.13,0.96,-1.09,-11.42,-79.43
0.03,-0.11,1.0,0.03,-10.61,-81.06
0.03,-0.06,1.08,1.88,-9.52,-81.67
0.03,-0.01,1.11,2.93,-8.32,-81.88
0.03,-0.01,1.1,2.55,-7.19,-82.24
0.03,-0.01,1.1,2.55,-7.19,-82.24
0.02,-0.02,1.08,1.49,-6.13,-82.2
-0.04,-0.02,1.06,0.68,-5.06,-81.68
-0.05,-0.02,1.05,0.7,-4.17,-81.67
-0.03,0.02,1.07,1.45,-3.61,-81.49
-0.03,0.02,1.07,1.96,-3.29,-80.72
-0.03,0.1,1.12,1.96,-3.29,-80.72
-0.01,0.07,1.06,1.38,-3.49,-80.2
0.02,0.04,1.0,1.54,-4.15,-79.66
0.08,0.03,1.03,2.85,-4.62,-78.15
0.01,0.12,1.11,4.77,-4.68,-74.51
0.01,0.12,1.11,4.6,-4.68,-73.07
0.04,0.23,1.19,4.6,-4.68,-73.07
0.11,0.14,1.1,0.76,-5.11,-72.3
0.05,0.02,0.96,-1.79,-5.49,-68.86
0.01,-0.04,0.97,-2.17,-5.49,-65.86
0.03,0.01,1.06,-1.18,-5.81,-63.37
0.03,0.01,1.06,-1.18,-5.81,-63.37
0.02,0.03,1.09,-0.09,-6.09,-60.65
0.05,-0.01,1.06,0.09,-6.14,-58.63
0.05,-0.02,1.03,-0.06,-5.85,-56.52
0.02,-0.01,0.99,0.19,-5.07,-54.08
0.01,-0.02,0.97,1.15,-4.13,-52.05
0.01,-0.02,0.97,1.15,-4.13,-52.05
0.0,-0.02,0.97,2.9,-3.11,-50.18
-0.01,0.0,1.0,5.06,-1.91,-48.39
-0.03,0.01,0.99,7.29,-0.72,-46.77
-0.04,0.02,0.97,9.79,0.19,-45.07
-0.05,0.05,1.0,12.33,0.65,-43.53
-0.05,0.05,1.0,12.33,0.65,-43.53
-0.04,0.09,1.04,14.27,0.66,-42.28
-0.03,0.1,1.06,15.01,0.38,-40.95
-0.02,0.1,1.07,14.25,-0.05,-39.36
-0.03,0.09,1.05,12.2,-0.54,-37.43
-0.03,0.06,1.02,9.57,-0.99,-35.14
-0.03,0.06,1.02,9.57,-0.99,-35.14
-0.04,0.03,1.01,6.95,-1.37,-32.55
-0.06,0.02,0.99,4.68,-1.65,-29.81
-0.07,0.01,0.98,2.86,-1.85,-27.24
-0.08,-0.01,0.97,1.52,-1.97,-24.97
-0.08,-0.02,0.95,0.84,-1.99,-22.93
-0.08,-0.02,0.95,0.84,-1.99,-22.93
-0.09,-0.05,0.93,1.14,-1.97,-21.25
-0.09,-0.04,0.93,2.65,-1.91,-20.07
-0.09,-0.02,0.97,4.86,-1.79,-19.2
-0.07,0.01,1.0,6.98,-1.58,-18.51
-0.05,0.01,1.01,8.5,-1.22,-17.75
-0.05,0.01,1.01,8.5,-1.22,-17.75
-0.07,0.04,1.03,9.11,-0.57,-16.4
-0.09,0.08,1.03,8.51,0.14,-15.41
-0.09,0.03,0.98,7.01,0.61,-14.88
-0.12,-0.0,0.96,6.37,0.95,-13.95
-0.11,0.01,1.02,5.94,1.34,-13.47
-0.11,0.01,1.02,5.94,1.34,-13.47
-0.11,0.05,1.06,4.79,1.5,-12.92
-0.13,0.07,1.06,2.34,1.65,-12.11
-0.14,0.03,1.01,-1.19,1.55,-11.78
-0.15,-0.0,0.97,-4.41,1.15,-11.62
-0.15,-0.02,0.97,-6.56,0.49,-11.32
-0.15,-0.02,0.97,-6.56,0.49,-11.32
-0.15,-0.02,0.99,-7.58,-0.28,-10.99
-0.15,-0.02,1.01,-8.05,-1.08,-10.89
-0.14,-0.03,1.02,-8.37,-1.96,-10.89
-0.14,-0.05,1.01,-8.62,-2.74,-10.89
-0.13,-0.06,1.02,-8.82,-3.43,-10.75
-0.13,-0.06,1.02,-8.82,-3.43,-10.75
-0.13,-0.06,1.03,-9.04,-4.04,-10.32
-0.14,-0.07,1.03,-9.42,-4.5,-9.6
-0.14,-0.09,1.01,-9.81,-4.85,-8.8
-0.13,-0.1,0.98,-9.88,-5.15,-7.91
-0.11,-0.11,0.97,-9.34,-5.43,-6.97
-0.11,-0.11,0.97,-9.34,-5.43,-6.97
-0.1,-0.11,0.97,-8.17,-5.66,-6.06
-0.09,-0.11,0.98,-6.57,-5.79,-5.21
-0.08,-0.1,0.99,-4.89,-5.81,-4.39
-0.07,-0.09,1.0,-3.4,-5.62,-3.55
-0.07,-0.09,1.0,-2.2,-5.25,-2.66
-0.07,-0.09,1.0,-2.2,-5.25,-2.66
-0.07,-0.08,1.0,-1.31,-4.66,-1.83
-0.08,-0.08,1.0,-0.65,-3.82,-1.08
-0.09,-0.07,1.0,-0.24,-2.82,-0.51
-0.08,-0.07,1.0,-0.06,-1.83,-0.25
-0.08,-0.07,1.0,-0.03,-0.99,-0.21
-0.08,-0.07,1.0,-0.03,-0.99,-0.21
-0.07,-0.06,1.0,-0.15,-0.37,-0.28
-0.07,-0.05,1.0,-0.44,0.01,-0.4
-0.06,-0.05,1.0,-0.96,0.12,-0.61
-0.05,-0.06,1.0,-1.75,0.07,-0.84
-0.04,-0.07,1.0,-2.7,-0.01,-0.98
-0.04,-0.07,1.0,-2.7,-0.01,-0.98
-0.04,-0.07,1.0,-3.58,0.05,-0.94
-0.04,-0.07,1.01,-4.4,0.36,-0.96
-0.04,-0.08,1.02,-5.31,0.8,-1.14
-0.05,-0.08,1.02,-6.18,1.39,-0.97
-0.07,-0.07,1.03,-7.21,2.1,-0.37
-0.07,-0.07,1.03,-7.21,2.1,-0.37
-0.08,-0.09,1.01,-8.36,2.62,0.08
-0.09,-0.11,1.0,-9.2,2.9,0.47
-0.1,-0.13,1.0,-9.5,3.0,0.66
-0.11,-0.15,0.99,-9.18,2.95,0.63
-0.1,-0.15,0.99,-8.21,2.7,0.38
-0.1,-0.15,0.99,-8.21,2.7,0.38
-0.09,-0.15,1.0,-6.73,2.36,-0.04
-0.08,-0.14,1.01,-5.04,2.01,-0.5
-0.09,-0.13,1.01,-3.36,1.74,-0.86
-0.09,-0.12,1.02,-1.92,1.61,-1.11
-0.1,-0.11,1.02,-0.81,1.64,-1.32
-0.1,-0.11,1.02,-0.81,1.64,-1.32
-0.11,-0.1,1.01,0.01,1.79,-1.53
-0.12,-0.09,1.01,0.63,1.95,-1.94
-0.12,-0.09,1.01,0.99,1.94,-2.53
-0.13,-0.08,1.01,1.26,1.8,-2.83
-0.14,-0.08,1.0,1.37,1.42,-3.2
-0.14,-0.08,1.0,1.37,1.42,-3.2
-0.13,-0.08,1.0,1.51,0.75,-3.57
-0.13,-0.08,1.0,1.66,-0.12,-3.68
-0.13,-0.09,1.0,1.8,-1.18,-3.64
-0.12,-0.1,1.0,1.97,-2.31,-3.26
-0.13,-0.1,0.99,2.31,-3.43,-2.71
-0.13,-0.1,0.99,2.31,-3.43,-2.71
-0.13,-0.09,0.98,2.93,-4.53,-2.32
-0.13,-0.09,0.98,3.92,-5.53,-2.06
-0.12,-0.08,0.98,5.09,-6.33,-1.91
-0.11,-0.06,0.99,6.19,-6.86,-1.78
-0.11,-0.05,0.99,6.98,-7.07,-1.61
-0.11,-0.05,0.99,6.98,-7.07,-1.61
-0.12,-0.05,0.98,7.36,-6.99,-1.48
-0.13,-0.06,0.97,7.49,-6.77,-1.5
-0.13,-0.07,0.96,7.53,-6.5,-1.66
-0.12,-0.07,0.96,7.54,-6.23,-1.82
-0.11,-0.06,0.97,7.5,-5.99,-1.93
-0.11,-0.06,0.97,7.5,-5.99,-1.93
-0.11,-0.06,0.98,7.36,-5.76,-2.02
-0.11,-0.05,0.98,7.06,-5.53,-2.09
-0.1,-0.05,0.99,6.49,-5.3,-2.14
-0.09,-0.05,0.98,5.68,-5.11,-2.04
-0.1,-0.06,0.98,4.76,-4.91,-1.84
-0.1,-0.06,0.98,4.76,-4.91,-1.84
-0.1,-0.06,0.96,3.96,-4.73,-1.79
-0.1,-0.06,0.97,3.37,-4.45,-1.61
-0.1,-0.06,0.97,2.7,-4.06,-1.24
-0.11,-0.08,0.95,2.23,-3.75,-0.88
-0.1,-0.1,0.95,2.19,-3.44,-0.82
-0.1,-0.1,0.95,2.19,-3.44,-0.82
-0.1,-0.09,0.98,2.47,-3.01,-0.4
-0.11,-0.09,0.98,2.59,-2.42,0.12
-0.1,-0.1,0.96,2.53,-1.89,0.5
-0.11,-0.12,0.94,2.7,-1.28,0.93
-0.11,-0.12,0.94,3.39,-0.63,1.28
-0.11,-0.12,0.94,3.39,-0.63,1.28
-0.1,-0.11,0.95,4.55,-0.02,1.43
-0.1,-0.09,0.97,5.73,0.67,1.47
-0.1,-0.08,0.98,6.6,1.47,1.38
-0.11,-0.07,0.97,7.08,2.33,1.12
-0.12,-0.06,0.98,7.21,3.16,0.81
-0.12,-0.06,0.98,7.21,3.16,0.81
-0.13,-0.05,0.99,6.95,3.98,0.52
-0.13,-0.04,1.0,6.05,4.71,0.06
-0.13,-0.03,0.99,4.55,5.38,-0.4
-0.13,-0.04,0.97,2.69,6.09,-0.95
-0.13,-0.06,0.97,0.74,6.56,-1.6
-0.13,-0.06,0.97,0.74,6.56,-1.6
-0.13,-0.06,0.96,-0.95,6.96,-2.24
-0.14,-0.06,0.96,-2.45,7.21,-2.89
-0.14,-0.07,0.97,-3.8,7.28,-3.51
-0.14,-0.08,0.96,-4.99,7.33,-4.16
