ax,ay,az,gx,gy,gz
0.02,-0.0,0.97,0.94,-2.84,3.33
0.02,-0.01,0.97,0.71,-2.03,3.12
0.02,-0.01,0.97,0.71,-2.03,3.12
0.01,-0.02,0.97,0.47,-0.97,2.81
0.01,-0.02,0.97,0.33,0.25,2.43
-0.0,-0.02,0.97,0.43,1.49,2.01
-0.01,-0.02,0.97,0.76,2.5,1.63
-0.02,-0.01,0.98,1.28,3.22,1.33
-0.02,-0.01,0.98,1.28,3.22,1.33
-0.02,-0.0,0.98,1.82,3.6,1.14
-0.02,0.0,0.98,2.27,3.61,1.06
-0.02,0.0,0.98,2.66,3.31,1.1
-0.01,-0.0,0.98,3.07,2.83,1.24
-0.01,0.0,0.99,3.5,2.3,1.48
-0.01,0.0,0.99,3.5,2.3,1.48
-0.01,0.0,0.99,3.91,1.8,1.75
-0.01,0.01,0.99,4.3,1.3,2.01
-0.01,0.01,0.99,4.62,0.87,2.17
-0.0,0.01,0.99,4.88,0.59,2.18
-0.0,0.01,0.99,5.06,0.5,2.04
-0.0,0.01,0.99,5.06,0.5,2.04
-0.0,0.02,0.99,5.15,0.59,1.73
-0.01,0.03,0.99,5.08,0.82,1.25
-0.01,0.03,0.99,4.72,1.11,0.66
-0.0,0.03,0.99,4.09,1.43,0.1
-0.0,0.01,0.98,3.35,1.67,-0.41
-0.0,0.01,0.98,3.35,1.67,-0.41
-0.0,0.0,0.97,2.79,1.81,-0.73
-0.01,-0.0,0.97,2.64,1.9,-0.83
-0.01,-0.01,0.97,3.01,1.93,-0.76
-0.02,-0.0,0.97,3.85,1.77,-0.44
-0.04,0.01,0.98,5.07,1.34,0.05
-0.04,0.01,0.98,5.07,1.34,0.05
-0.06,0.02,0.99,6.55,0.61,0.5
-0.06,0.04,1.01,8.07,-0.44,0.75
-0.05,0.06,1.02,9.27,-1.67,0.89
-0.03,0.07,1.03,9.94,-2.81,0.96
-0.01,0.07,1.03,10.01,-3.7,0.94
-0.01,0.07,1.03,10.01,-3.7,0.94
-0.0,0.06,1.03,9.48,-4.25,0.85
0.0,0.06,1.02,8.5,-4.61,0.73
0.0,0.04,1.0,7.41,-4.61,0.59
0.0,0.02,1.0,6.4,-4.37,0.43
0.01,0.02,0.99,5.52,-4.12,0.24
0.01,0.02,0.99,5.52,-4.12,0.24
0.01,0.02,0.98,4.75,-3.81,0.01
0.0,0.02,0.98,4.14,-3.6,-0.2
0.0,0.01,0.98,3.63,-3.51,-0.39
0.01,0.01,0.98,3.09,-3.51,-0.61
0.01,0.01,0.97,2.56,-3.56,-0.86
0.01,0.01,0.97,2.56,-3.56,-0.86
0.01,0.01,0.97,2.12,-3.67,-1.08
0.02,0.0,0.97,1.84,-3.85,-1.25
0.02,0.0,0.97,1.77,-4.06,-1.3
0.02,0.01,0.97,1.9,-4.23,-1.29
0.02,0.01,0.98,2.14,-4.24,-1.32
0.02,0.01,0.98,2.14,-4.24,-1.32
0.03,0.01,0.99,2.4,-3.96,-1.44
0.03,0.01,0.99,2.66,-3.35,-1.69
0.04,0.01,1.0,2.87,-2.41,-2.04
0.04,0.0,1.0,3.0,-1.19,-2.44
0.03,0.0,0.99,3.02,0.18,-2.84
0.03,0.0,0.99,3.02,0.18,-2.84
0.02,-0.0,0.98,3.02,1.51,-3.21
0.02,-0.01,0.98,3.03,2.65,-3.54
0.02,-0.02,0.98,3.15,3.64,-3.75
-0.0,-0.02,0.98,3.5,4.42,-3.84
-0.02,-0.01,0.98,4.08,4.88,-3.89
-0.02,-0.01,0.98,4.08,4.88,-3.89
-0.04,-0.0,0.99,4.65,4.86,-3.98
-0.05,0.01,1.0,4.91,4.36,-4.21
-0.04,0.01,1.01,4.7,3.44,-4.62
-0.03,0.01,1.02,3.98,2.25,-5.07
-0.01,-0.0,1.02,2.79,0.92,-5.42
-0.01,-0.0,1.02,2.79,0.92,-5.42
-0.01,-0.01,1.01,1.28,-0.26,-5.65
-0.01,-0.04,1.01,-0.29,-1.23,-5.84
-0.01,-0.06,1.01,-1.86,-2.15,-6.09
-0.0,-0.07,1.01,-3.32,-2.74,-6.53
0.0,-0.09,0.99,-4.41,-2.92,-7.18
0.0,-0.09,0.99,-4.41,-2.92,-7.18
0.01,-0.1,0.98,-5.08,-2.7,-8.07
0.01,-0.11,0.98,-5.29,-2.1,-9.06
0.01,-0.11,0.97,-4.94,-1.18,-10.0
0.01,-0.11,0.97,-4.21,-0.11,-10.89
0.0,-0.11,0.98,-3.3,0.9,-11.75
0.0,-0.11,0.98,-3.3,0.9,-11.75
-0.0,-0.09,0.98,-2.27,1.78,-12.53
-0.02,-0.09,0.99,-1.3,2.49,-13.16
-0.03,-0.08,1.01,-0.54,2.72,-13.7
-0.03,-0.07,1.02,-0.25,2.48,-14.37
-0.02,-0.06,1.02,-0.49,1.98,-15.21
-0.02,-0.06,1.02,-0.49,1.98,-15.21
-0.01,-0.07,1.03,-1.27,1.3,-16.15
-0.0,-0.08,1.03,-2.52,0.61,-17.24
0.01,-0.09,1.02,-4.11,0.13,-18.48
0.02,-0.1,1.03,-5.85,-0.17,-19.79
0.03,-0.12,1.03,-7.69,-0.24,-21.14
0.03,-0.12,1.03,-7.69,-0.24,-21.14
0.04,-0.13,1.03,-9.57,0.05,-22.55
0.04,-0.15,1.02,-11.15,0.54,-23.9
0.03,-0.16,1.0,-12.14,1.33,-25.19
0.02,-0.17,1.01,-12.49,2.14,-26.55
0.02,-0.16,1.02,-12.37,2.8,-28.02
0.02,-0.16,1.02,-12.37,2.8,-28.02
0.02,-0.14,1.03,-11.99,3.31,-29.6
0.01,-0.13,1.04,-11.62,3.62,-31.13
0.01,-0.11,1.05,-11.5,3.64,-32.62
0.01,-0.1,1.06,-11.78,3.29,-34.07
0.02,-0.1,1.07,-12.49,2.66,-35.42
0.02,-0.1,1.07,-12.49,2.66,-35.42
0.03,-0.1,1.07,-13.64,1.87,-36.77
0.04,-0.11,1.07,-15.17,1.03,-38.14
0.04,-0.12,1.06,-16.79,0.17,-39.51
0.04,-0.13,1.05,-18.25,-0.67,-40.86
0.05,-0.14,1.04,-19.46,-1.45,-42.13
0.05,-0.14,1.04,-19.46,-1.45,-42.13
0.06,-0.14,1.04,-20.4,-2.1,-43.34
0.07,-0.14,1.03,-20.97,-2.53,-44.46
0.07,-0.13,1.03,-21.13,-2.68,-45.46
0.07,-0.13,1.04,-20.97,-2.56,-46.33
0.07,-0.12,1.05,-20.63,-2.17,-47.07
0.07,-0.12,1.05,-20.63,-2.17,-47.07
0.06,-0.11,1.07,-20.08,-1.54,-47.75
0.05,-0.1,1.08,-19.32,-0.7,-48.39
0.04,-0.1,1.08,-18.47,0.1,-49.02
0.01,-0.09,1.08,-17.64,0.52,-49.58
-0.0,-0.08,1.08,-16.78,0.42,-50.24
-0.0,-0.08,1.08,-16.78,0.42,-50.24
0.0,-0.06,1.08,-15.9,-0.32,-51.01
0.03,-0.04,1.08,-15.1,-1.59,-51.8
0.06,-0.03,1.08,-14.63,-3.18,-52.47
0.08,-0.02,1.08,-14.7,-4.95,-52.99
0.08,-0.02,1.08,-15.42,-6.82,-53.4
0.11,-0.03,1.08,-15.42,-6.82,-53.4
0.14,-0.05,1.07,-16.57,-8.53,-53.74
0.16,-0.08,1.05,-17.77,-9.82,-54.01
0.17,-0.1,1.05,-18.68,-10.69,-54.23
0.17,-0.11,1.04,-19.19,-10.95,-54.43
0.17,-0.11,1.04,-19.17,-10.91,-54.6
0.17,-0.11,1.03,-19.17,-10.91,-54.6
0.16,-0.11,1.02,-18.67,-10.65,-54.85
0.16,-0.1,1.02,-17.7,-10.23,-55.08
0.17,-0.09,1.02,-16.36,-9.75,-55.15
0.17,-0.08,1.02,-14.85,-9.3,-54.93
0.17,-0.08,1.02,-14.85,-9.3,-54.93
0.17,-0.06,1.04,-13.33,-8.88,-54.44
0.16,-0.04,1.04,-11.89,-8.46,-53.77
0.14,-0.02,1.05,-10.65,-8.05,-53.06
0.11,0.01,1.06,-9.83,-7.89,-52.49
0.11,0.03,1.05,-9.63,-8.16,-52.36
0.11,0.03,1.05,-9.63,-8.16,-52.36
0.13,0.04,1.05,-10.14,-8.88,-52.57
0.15,0.04,1.05,-11.33,-9.89,-52.86
0.18,0.03,1.03,-13.14,-11.17,-53.05
0.2,0.02,1.02,-15.33,-12.59,-52.89
0.21,0.01,1.01,-17.62,-13.96,-52.4
0.21,0.01,1.01,-17.62,-13.96,-52.4
0.22,-0.0,1.0,-19.74,-15.19,-51.67
0.23,-0.01,0.99,-21.49,-16.2,-50.75
0.23,0.0,1.0,-22.89,-16.78,-49.76
0.23,-0.0,1.0,-24.48,-17.05,-48.91
0.23,-0.0,0.97,-25.85,-16.95,-48.02
0.23,-0.0,0.97,-25.85,-16.95,-48.02
0.21,-0.0,0.96,-26.24,-16.16,-47.22
0.22,0.01,0.97,-25.04,-15.01,-47.67
0.23,0.03,1.0,-23.28,-13.49,-48.14
0.22,0.05,0.98,-21.68,-12.16,-47.14
0.22,0.05,0.97,-19.83,-10.97,-45.85
0.22,0.05,0.97,-19.83,-10.97,-45.85
0.23,0.06,0.99,-17.57,-10.1,-44.93
0.22,0.08,1.03,-15.27,-9.45,-43.21
0.17,0.12,1.06,-13.69,-9.03,-40.76
0.15,0.14,1.05,-13.46,-9.23,-38.61
0.16,0.13,1.03,-14.25,-10.13,-37.04
0.16,0.13,1.03,-14.25,-10.13,-37.04
0.19,0.1,1.02,-15.25,-11.4,-35.84
0.22,0.08,1.02,-15.83,-12.58,-34.58
0.22,0.08,1.02,-15.94,-13.65,-33.2
0.23,0.09,1.02,-15.9,-14.64,-31.77
0.24,0.1,1.02,-16.0,-15.45,-30.42
0.24,0.1,1.02,-16.0,-15.45,-30.42
0.25,0.09,1.03,-16.14,-15.87,-29.24
0.25,0.09,1.04,-16.02,-15.57,-28.25
0.23,0.1,1.04,-15.32,-14.47,-27.37
0.19,0.12,1.03,-14.1,-12.79,-26.45
0.17,0.14,1.03,-12.69,-11.09,-25.33
0.17,0.14,1.03,-12.69,-11.09,-25.33
0.17,0.15,1.03,-11.31,-9.72,-23.91
0.17,0.15,1.03,-9.99,-8.65,-22.01
0.17,0.15,1.03,-8.88,-8.08,-19.58
0.16,0.15,1.02,-8.15,-8.05,-16.57
0.15,0.16,1.01,-7.67,-8.63,-13.23
0.15,0.16,1.01,-7.67,-8.63,-13.23
0.14,0.15,0.99,-7.22,-9.68,-9.94
0.15,0.14,0.98,-6.58,-11.06,-7.13
0.17,0.13,0.98,-5.7,-12.62,-4.85
0.18,0.11,0.97,-4.59,-14.08,-2.91
0.16,0.12,0.97,-3.27,-15.28,-1.18
0.16,0.12,0.97,-3.27,-15.28,-1.18
0.15,0.14,0.98,-1.89,-16.29,0.21
0.12,0.18,1.0,-0.68,-17.2,1.08
0.11,0.22,1.02,0.16,-17.93,1.33
0.1,0.24,1.03,0.54,-18.35,1.01
0.09,0.26,1.04,0.37,-18.35,0.34
0.09,0.26,1.04,0.37,-18.35,0.34
0.1,0.26,1.04,-0.6,-18.05,-0.25
0.08,0.26,1.02,-2.22,-17.67,0.02
0.06,0.27,1.01,-4.21,-17.57,0.34
0.09,0.24,1.0,-6.0,-17.89,0.01
0.13,0.21,1.01,-7.22,-18.06,0.04
0.13,0.21,1.01,-7.22,-18.06,0.04
0.12,0.18,1.01,-8.32,-18.18,1.83
0.11,0.16,0.98,-9.3,-18.63,5.22
0.12,0.14,0.96,-9.44,-19.41,8.93
0.14,0.13,0.95,-8.13,-20.13,12.54
0.13,0.13,0.96,-5.87,-20.76,16.24
0.13,0.13,0.96,-5.87,-20.76,16.24
0.11,0.14,0.97,-3.49,-21.5,19.98
0.1,0.16,0.97,-1.49,-22.22,23.39
0.09,0.18,0.99,0.05,-22.75,26.18
0.1,0.19,1.0,1.23,-22.79,28.23
0.1,0.2,1.02,2.21,-22.02,29.47
0.1,0.2,1.02,2.21,-22.02,29.47
0.08,0.21,1.03,3.24,-20.31,29.78
0.05,0.22,1.04,4.22,-17.89,29.37
0.02,0.22,1.04,4.91,-15.23,28.84
-0.01,0.23,1.03,5.09,-12.87,28.59
-0.03,0.24,1.02,4.8,-11.29,28.56
-0.03,0.24,1.02,4.8,-11.29,28.56
-0.02,0.22,1.01,4.38,-10.51,28.59
0.0,0.2,1.0,4.06,-10.44,28.97
0.02,0.19,1.0,3.85,-10.94,29.96
0.04,0.17,1.0,3.78,-11.77,31.54
0.05,0.15,0.99,3.99,-12.65,33.53
0.05,0.15,0.99,3.99,-12.65,33.53
0.05,0.14,0.98,4.69,-13.39,35.78
0.03,0.13,0.97,5.81,-14.1,38.14
0.01,0.13,0.97,7.15,-14.81,40.36
0.0,0.13,0.97,8.54,-15.55,42.3
-0.0,0.13,0.96,9.82,-16.25,43.91
-0.0,0.13,0.96,9.82,-16.25,43.91
0.0,0.13,0.96,10.85,-16.77,45.16
0.02,0.13,0.96,11.52,-17.07,46.0
0.03,0.13,0.96,11.76,-16.96,46.43
0.05,0.13,0.96,11.62,-16.34,46.49
0.05,0.12,0.95,11.22,-15.16,46.28
0.05,0.12,0.95,11.22,-15.16,46.28
0.04,0.11,0.95,10.59,-13.53,46.01
0.03,0.11,0.95,9.78,-11.62,45.95
0.02,0.1,0.94,8.91,-9.64,46.23
0.01,0.09,0.93,8.1,-7.85,46.83
-0.02,0.08,0.93,7.48,-6.49,47.82
-0.02,0.08,0.93,7.48,-6.49,47.82
-0.04,0.07,0.92,7.17,-5.54,49.1
-0.03,0.05,0.91,7.2,-5.25,50.62
-0.03,0.03,0.91,7.55,-5.5,52.54
-0.03,0.02,0.91,8.26,-6.19,54.69
-0.02,0.01,0.92,9.28,-7.08,56.75
-0.02,0.01,0.92,9.28,-7.08,56.75
-0.01,-0.0,0.92,10.61,-7.93,58.58
-0.02,0.0,0.92,12.16,-8.62,60.07
-0.03,0.01,0.92,13.79,-9.15,61.13
-0.03,0.03,0.93,15.28,-9.63,61.66
-0.02,0.05,0.94,16.41,-9.88,61.74
-0.02,0.05,0.94,16.41,-9.88,61.74
-0.01,0.05,0.96,17.06,-9.75,61.49
0.0,0.05,0.96,17.07,-9.08,61.15
0.01,0.05,0.96,16.33,-7.97,61.0
0.0,0.04,0.96,15.0,-6.66,61.16
0.0,0.02,0.96,13.35,-5.28,61.5
0.0,0.02,0.96,13.35,-5.28,61.5
-0.0,-0.0,0.95,11.65,-3.85,61.94
-0.0,-0.03,0.93,10.13,-2.45,62.41
-0.0,-0.05,0.93,8.98,-1.12,62.83
-0.01,-0.07,0.92,8.38,0.21,63.09
-0.02,-0.08,0.91,8.46,1.49,63.11
-0.02,-0.08,0.91,8.46,1.49,63.11
-0.03,-0.08,0.9,9.27,2.73,62.93
-0.05,-0.07,0.91,10.69,3.87,62.55
-0.07,-0.07,0.91,12.47,4.97,62.06
-0.09,-0.07,0.92,14.49,5.79,61.55
-0.08,-0.07,0.93,16.51,6.17,61.01
-0.08,-0.07,0.93,16.51,6.17,61.01
-0.07,-0.07,0.93,18.43,6.27,60.53
-0.07,-0.06,0.94,20.33,6.14,60.13
-0.06,-0.05,0.95,22.13,5.83,59.72
-0.04,-0.04,0.95,23.64,5.53,59.27
-0.04,-0.02,0.95,24.74,5.31,58.88
-0.04,-0.02,0.95,24.74,5.31,58.88
-0.03,0.0,0.94,25.34,5.31,58.55
-0.03,0.02,0.93,25.33,5.56,58.27
-0.02,0.03,0.94,24.74,6.06,58.14
-0.02,0.03,0.95,23.58,6.96,58.13
-0.03,0.01,0.96,21.93,8.35,58.13
-0.03,0.01,0.96,21.93,8.35,58.13
-0.04,-0.02,0.96,19.84,10.14,58.31
-0.07,-0.06,0.96,17.47,12.07,58.8
-0.09,-0.09,0.96,15.12,13.91,59.55
-0.11,-0.12,0.95,13.12,15.36,60.3
-0.12,-0.14,0.94,11.74,16.16,60.91
-0.12,-0.14,0.94,11.74,16.16,60.91
-0.11,-0.16,0.94,11.06,16.09,61.56
-0.12,-0.16,0.94,11.0,15.23,62.3
-0.13,-0.15,0.92,11.51,13.74,62.84
-0.13,-0.13,0.91,12.66,11.6,63.02
-0.12,-0.11,0.91,14.16,8.88,62.86
-0.12,-0.11,0.91,14.16,8.88,62.86
-0.1,-0.09,0.93,15.64,5.87,62.55
-0.08,-0.09,0.96,16.72,3.0,62.27
-0.04,-0.09,0.98,17.12,0.6,62.17
-0.03,-0.11,0.99,16.8,-1.06,62.32
-0.04,-0.13,0.99,15.95,-1.84,62.61
-0.04,-0.13,0.99,15.95,-1.84,62.61
-0.07,-0.14,0.98,14.83,-1.87,62.78
-0.09,-0.16,0.97,13.72,-1.29,62.53
-0.1,-0.18,0.96,12.72,-0.31,61.68
-0.09,-0.2,0.93,12.01,0.96,60.21
-0.09,-0.21,0.92,11.7,2.45,58.39
-0.09,-0.21,0.92,11.7,2.45,58.39
-0.08,-0.21,0.9,12.0,4.12,56.4
-0.08,-0.2,0.89,12.98,5.92,54.27
-0.09,-0.18,0.89,14.54,7.72,52.15
-0.09,-0.16,0.89,16.33,9.33,50.29
-0.09,-0.13,0.9,17.97,10.65,48.89
-0.09,-0.13,0.9,17.97,10.65,48.89
-0.09,-0.11,0.92,19.23,11.47,48.16
-0.1,-0.1,0.95,19.83,11.78,48.0
-0.11,-0.09,0.95,19.58,11.78,48.32
-0.12,-0.1,0.94,18.56,11.46,48.92
-0.11,-0.12,0.92,16.98,10.85,49.6
-0.11,-0.12,0.92,16.98,10.85,49.6
-0.1,-0.14,0.89,15.22,10.27,50.28
-0.1,-0.14,0.85,13.52,9.58,50.86
-0.09,-0.12,0.81,12.09,8.82,51.1
-0.07,-0.1,0.78,11.09,8.35,51.0
-0.04,-0.07,0.79,10.36,8.21,50.86
-0.04,-0.07,0.79,10.36,8.21,50.86
-0.01,-0.06,0.82,9.31,8.36,51.1
0.02,-0.06,0.88,7.41,9.17,51.91
0.01,-0.08,0.93,4.53,11.11,53.08
-0.02,-0.12,0.96,0.8,14.39,54.06
-0.07,-0.16,0.96,-3.39,18.62,54.5
-0.07,-0.16,0.96,-3.39,18.62,54.5
-0.11,-0.2,0.97,-7.67,23.3,54.06
-0.12,-0.24,0.97,-11.75,27.87,52.54
-0.12,-0.28,0.95,-15.45,32.1,50.18
-0.11,-0.32,0.92,-18.44,35.53,47.4
-0.1,-0.34,0.88,-20.39,37.76,44.75
-0.1,-0.34,0.88,-20.39,37.76,44.75
-0.11,-0.35,0.84,-20.96,38.63,42.61
-0.13,-0.35,0.8,-20.06,37.97,41.24
-0.15,-0.32,0.77,-17.71,35.69,40.58
-0.14,-0.28,0.78,-14.01,32.09,40.46
-0.11,-0.25,0.83,-9.25,27.93,40.71
-0.11,-0.25,0.83,-9.25,27.93,40.71
-0.07,-0.22,0.89,-4.23,23.91,41.37
-0.06,-0.2,0.94,0.24,20.53,42.47
-0.06,-0.2,0.97,3.72,18.11,43.93
-0.07,-0.22,0.99,6.07,16.8,45.57
-0.09,-0.25,1.01,7.36,16.46,47.16
-0.09,-0.25,1.01,7.36,16.46,47.16
-0.11,-0.29,1.01,7.87,16.93,48.46
-0.14,-0.33,1.01,8.0,17.96,49.17
-0.17,-0.36,1.0,8.19,19.31,49.05
-0.18,-0.37,0.98,8.67,20.64,47.9
-0.17,-0.36,0.96,9.52,21.59,45.84
-0.17,-0.36,0.96,9.52,21.59,45.84
-0.15,-0.34,0.95,10.86,21.96,43.25
-0.11,-0.31,0.98,12.59,21.85,40.56
-0.09,-0.29,1.0,14.36,21.59,38.18
-0.09,-0.27,1.01,15.82,21.3,36.43
-0.09,-0.26,1.02,16.6,20.93,35.47
-0.09,-0.26,1.02,16.6,20.93,35.47
-0.09,-0.27,1.04,16.65,20.47,35.26
-0.12,-0.29,1.05,16.21,20.14,35.65
-0.16,-0.31,1.05,15.64,20.07,36.13
-0.21,-0.33,1.04,15.1,20.09,36.04
-0.22,-0.34,1.02,14.73,19.89,35.06
-0.22,-0.34,1.02,14.73,19.89,35.06
-0.2,-0.35,1.01,14.7,19.44,33.15
-0.18,-0.34,1.0,15.12,18.71,30.64
-0.15,-0.32,0.98,15.89,17.61,27.84
-0.12,-0.29,0.97,16.79,16.17,24.92
-0.08,-0.26,0.98,17.59,14.44,22.14
-0.08,-0.26,0.98,17.59,14.44,22.14
-0.04,-0.23,1.0,18.14,12.62,19.93
-0.02,-0.21,1.02,18.14,10.88,18.53
-0.01,-0.21,1.04,17.27,9.37,17.89
-0.01,-0.25,1.06,15.41,8.27,17.9
-0.02,-0.3,1.06,12.86,7.74,18.46
-0.02,-0.3,1.06,12.86,7.74,18.46
-0.06,-0.35,1.05,10.16,7.86,19.28
-0.09,-0.4,1.03,7.71,8.39,19.94
-0.12,-0.46,1.01,5.78,9.01,20.19
-0.13,-0.5,0.97,4.62,9.56,19.96
-0.13,-0.52,0.93,4.53,9.71,19.16
-0.13,-0.52,0.93,4.53,9.71,19.16
-0.1,-0.52,0.89,5.76,9.45,17.48
-0.06,-0.5,0.88,8.39,8.89,14.94
-0.01,-0.46,0.91,12.03,8.35,11.81
0.01,-0.4,0.93,15.81,8.07,8.34
0.02,-0.35,0.94,19.07,8.26,4.59
0.02,-0.35,0.94,19.07,8.26,4.59
0.01,-0.3,0.96,21.62,8.96,0.8
-0.0,-0.27,0.99,23.26,10.07,-2.87
-0.02,-0.25,1.02,23.77,11.44,-6.29
-0.03,-0.25,1.03,23.14,12.94,-9.17
-0.04,-0.28,1.03,21.58,14.36,-11.39
-0.04,-0.28,1.03,21.58,14.36,-11.39
-0.05,-0.33,1.02,19.52,15.64,-13.01
-0.08,-0.37,1.0,17.66,16.72,-14.37
-0.08,-0.39,0.98,16.62,17.54,-16.05
-0.07,-0.4,0.96,16.56,18.05,-18.42
-0.04,-0.36,0.95,17.54,18.28,-21.39
-0.04,-0.36,0.95,17.54,18.28,-21.39
-0.04,-0.29,0.97,19.43,18.47,-24.9
-0.04,-0.2,0.99,21.7,18.78,-28.97
-0.03,-0.11,1.02,23.49,19.21,-33.46
-0.02,-0.03,1.06,24.22,19.89,-38.16
-0.0,0.02,1.1,23.57,20.95,-42.82
-0.0,0.02,1.1,23.57,20.95,-42.82
0.01,0.03,1.12,21.23,22.29,-46.86
0.03,0.01,1.11,17.27,23.72,-49.77
0.02,-0.05,1.1,12.33,25.22,-51.38
-0.01,-0.12,1.09,7.2,26.64,-51.98
-0.06,-0.18,1.06,2.58,27.82,-51.91
-0.06,-0.18,1.06,2.58,27.82,-51.91
-0.1,-0.23,1.03,-1.07,28.55,-51.52
-0.1,-0.25,1.01,-3.49,28.64,-51.26
-0.04,-0.26,1.01,-4.48,28.19,-51.62
0.02,-0.24,1.05,-4.06,27.71,-52.67
0.04,-0.19,1.08,-2.7,27.6,-54.17
0.04,-0.19,1.08,-2.7,27.6,-54.17
0.04,-0.14,1.11,-1.14,27.93,-56.21
0.04,-0.07,1.14,0.07,28.59,-58.88
0.05,-0.02,1.18,0.55,29.38,-61.8
0.05,0.01,1.21,0.01,30.11,-64.68
0.03,0.02,1.22,-1.62,30.59,-67.29
0.03,0.02,1.22,-1.62,30.59,-67.29
0.01,0.01,1.21,-4.13,30.61,-69.54
-0.02,-0.02,1.19,-7.03,30.06,-71.24
-0.07,-0.05,1.19,-9.76,28.8,-72.41
-0.12,-0.07,1.17,-12.01,26.94,-73.33
-0.14,-0.08,1.15,-13.59,24.37,-74.04
-0.14,-0.08,1.15,-13.59,24.37,-74.04
-0.14,-0.09,1.12,-14.41,21.06,-74.51
-0.12,-0.06,1.1,-14.46,17.22,-74.81
-0.07,-0.02,1.1,-13.68,13.26,-75.14
-0.03,0.03,1.11,-12.43,9.48,-75.62
0.01,0.05,1.11,-11.21,5.96,-76.44
0.01,0.05,1.11,-11.21,5.96,-76.44
0.02,0.06,1.1,-10.12,3.1,-76.59
-0.06,0.15,1.11,-9.24,0.64,-75.26
-0.02,0.17,1.11,-8.63,-1.97,-76.04
0.03,0.15,1.11,-8.41,-4.15,-77.61
0.02,0.13,1.08,-8.57,-5.94,-77.37
0.02,0.13,1.08,-8.57,-5.94,-77.37
-0.01,0.12,1.06,-8.36,-7.34,-76.09
0.02,0.11,1.06,-7.86,-8.92,-75.46
-0.01,0.14,1.05,-7.09,-10.14,-74.44
0.01,0.1,1.03,-6.54,-11.24,-74.13
0.01,0.1,1.03,-6.05,-11.96,-73.03
0.04,0.09,1.01,-6.05,-11.96,-73.03
-0.01,0.14,1.0,-5.52,-12.26,-69.27
-0.05,0.16,0.96,-5.46,-12.8,-65.36
-0.05,0.1,0.9,-4.69,-13.85,-62.93
-0.06,0.08,0.9,-2.46,-14.85,-60.88
-0.06,0.08,0.9,0.34,-16.12,-58.36
-0.1,0.12,0.91,0.34,-16.12,-58.36
-0.09,0.17,0.91,2.69,-17.9,-56.42
-0.03,0.15,0.91,4.55,-20.04,-55.64
0.04,0.13,0.92,6.3,-21.67,-55.08
0.09,0.16,0.93,7.65,-22.37,-53.45
0.09,0.16,0.93,7.65,-22.37,-53.45
0.1,0.2,0.94,8.25,-22.13,-50.64
0.11,0.23,0.96,7.75,-21.0,-47.54
0.11,0.21,0.95,6.02,-19.36,-44.81
0.1,0.18,0.95,3.55,-17.39,-42.62
0.08,0.14,0.94,1.12,-15.16,-41.15
0.08,0.14,0.94,1.12,-15.16,-41.15
0.07,0.09,0.94,-0.58,-12.78,-40.5
0.05,0.07,0.94,-1.26,-10.49,-40.18
0.04,0.07,0.96,-1.02,-8.54,-39.5
0.02,0.1,0.98,-0.35,-7.1,-38.25
0.01,0.13,1.0,0.39,-6.24,-36.58
0.01,0.13,1.0,0.39,-6.24,-36.58
0.0,0.16,1.02,0.78,-6.07,-34.78
-0.0,0.17,1.03,0.6,-6.47,-33.14
-0.01,0.17,1.04,-0.2,-7.34,-31.66
-0.0,0.14,1.02,-1.48,-8.57,-30.37
0.01,0.1,1.0,-2.78,-10.01,-29.41
0.01,0.1,1.0,-2.78,-10.01,-29.41
0.04,0.06,1.0,-3.72,-11.46,-28.48
0.06,0.04,1.0,-4.19,-12.65,-27.34
0.08,0.03,1.0,-4.18,-13.29,-25.96
0.1,0.03,0.99,-3.77,-13.27,-24.62
0.11,0.03,0.99,-2.96,-12.62,-23.42
0.11,0.03,0.99,-2.96,-12.62,-23.42
0.11,0.03,0.98,-1.73,-11.4,-22.33
