ax,ay,az,gx,gy,gz
-0.37,0.05,0.92,-4.29,-2.25,-2.8
-0.37,0.05,0.92,-4.12,-2.62,-2.71
-0.37,0.05,0.92,-3.89,-3.08,-2.59
-0.37,0.05,0.92,-3.66,-3.67,-2.47
-0.37,0.05,0.92,-3.66,-3.67,-2.47
-0.37,0.05,0.92,-3.4,-4.39,-2.37
-0.36,0.05,0.91,-3.14,-5.09,-2.3
-0.36,0.05,0.91,-2.92,-5.75,-2.28
-0.35,0.06,0.91,-2.71,-6.28,-2.3
-0.35,0.06,0.9,-2.57,-6.58,-2.35
-0.35,0.06,0.9,-2.57,-6.58,-2.35
-0.35,0.06,0.9,-2.53,-6.69,-2.44
-0.34,0.06,0.9,-2.53,-6.62,-2.57
-0.34,0.06,0.9,-2.55,-6.38,-2.7
-0.34,0.06,0.89,-2.54,-6.06,-2.77
-0.35,0.06,0.89,-2.54,-5.75,-2.79
-0.35,0.06,0.89,-2.54,-5.75,-2.79
-0.35,0.06,0.89,-2.52,-5.47,-2.79
-0.34,0.05,0.89,-2.49,-5.22,-2.77
-0.34,0.05,0.89,-2.44,-4.99,-2.73
-0.34,0.05,0.89,-2.3,-4.76,-2.62
-0.35,0.05,0.9,-2.1,-4.5,-2.51
-0.35,0.05,0.9,-2.1,-4.5,-2.51
-0.35,0.05,0.9,-1.9,-4.29,-2.4
-0.34,0.05,0.9,-1.73,-4.08,-2.32
-0.35,0.05,0.9,-1.66,-3.9,-2.23
-0.35,0.05,0.9,-1.68,-3.75,-2.15
-0.35,0.05,0.9,-1.75,-3.64,-2.09
-0.35,0.05,0.9,-1.75,-3.64,-2.09
-0.35,0.04,0.9,-1.83,-3.49,-2.12
-0.34,0.04,0.9,-1.9,-3.27,-2.28
-0.34,0.04,0.9,-1.98,-2.93,-2.5
-0.34,0.05,0.9,-2.05,-2.51,-2.7
-0.34,0.05,0.9,-2.15,-2.07,-2.91
-0.34,0.05,0.9,-2.15,-2.07,-2.91
-0.35,0.05,0.89,-2.28,-1.72,-3.1
-0.34,0.05,0.9,-2.4,-1.45,-3.25
-0.34,0.05,0.9,-2.53,-1.21,-3.34
-0.35,0.05,0.89,-2.66,-1.01,-3.38
-0.35,0.05,0.9,-2.75,-0.87,-3.39
-0.35,0.05,0.9,-2.75,-0.87,-3.39
-0.35,0.05,0.89,-2.76,-0.79,-3.36
-0.35,0.06,0.9,-2.63,-0.68,-3.28
-0.35,0.06,0.9,-2.45,-0.5,-3.17
-0.35,0.06,0.91,-2.3,-0.29,-3.02
-0.36,0.07,0.91,-2.22,-0.06,-2.87
-0.36,0.07,0.91,-2.22,-0.06,-2.87
-0.36,0.07,0.91,-2.22,0.18,-2.69
-0.36,0.07,0.91,-2.29,0.37,-2.46
-0.37,0.07,0.91,-2.37,0.45,-2.23
-0.37,0.07,0.91,-2.46,0.39,-2.02
-0.38,0.06,0.91,-2.58,0.18,-1.86
-0.38,0.06,0.91,-2.58,0.18,-1.86
-0.37,0.06,0.92,-2.73,-0.17,-1.74
-0.37,0.06,0.92,-2.89,-0.55,-1.64
-0.36,0.05,0.91,-3.06,-0.91,-1.58
-0.36,0.05,0.91,-3.19,-1.28,-1.51
-0.36,0.05,0.91,-3.29,-1.64,-1.43
-0.36,0.05,0.91,-3.29,-1.64,-1.43
-0.36,0.04,0.91,-3.38,-1.96,-1.38
-0.35,0.04,0.91,-3.44,-2.18,-1.41
-0.35,0.04,0.91,-3.46,-2.28,-1.46
-0.35,0.03,0.91,-3.39,-2.33,-1.51
-0.35,0.03,0.91,-3.21,-2.34,-1.56
-0.35,0.03,0.91,-3.21,-2.34,-1.56
-0.35,0.04,0.91,-2.96,-2.36,-1.59
-0.36,0.04,0.91,-2.67,-2.48,-1.55
-0.36,0.04,0.91,-2.36,-2.75,-1.55
-0.36,0.05,0.91,-2.04,-3.1,-1.61
-0.36,0.05,0.92,-1.7,-3.5,-1.68
-0.36,0.05,0.92,-1.7,-3.5,-1.68
-0.36,0.05,0.92,-1.41,-3.87,-1.75
-0.36,0.06,0.92,-1.18,-4.15,-1.82
-0.36,0.06,0.93,-1.09,-4.36,-1.86
-0.37,0.06,0.93,-1.18,-4.57,-1.95
-0.37,0.06,0.92,-1.41,-4.86,-2.03
-0.37,0.06,0.92,-1.41,-4.86,-2.03
-0.36,0.06,0.92,-1.67,-5.18,-2.06
-0.36,0.05,0.92,-1.92,-5.53,-2.06
-0.36,0.05,0.91,-2.13,-5.87,-2.06
-0.36,0.05,0.91,-2.25,-6.18,-2.06
-0.35,0.05,0.91,-2.26,-6.4,-2.08
-0.35,0.05,0.91,-2.26,-6.4,-2.08
-0.34,0.05,0.9,-2.15,-6.46,-2.09
-0.34,0.05,0.91,-1.97,-6.37,-2.05
-0.34,0.05,0.9,-1.8,-6.18,-2.07
-0.34,0.05,0.9,-1.67,-5.89,-2.11
-0.34,0.05,0.91,-1.51,-5.63,-2.15
-0.34,0.05,0.91,-1.51,-5.63,-2.15
-0.34,0.06,0.91,-1.37,-5.34,-2.22
-0.35,0.06,0.91,-1.25,-5.12,-2.25
-0.35,0.06,0.91,-1.19,-5.07,-2.24
-0.35,0.07,0.91,-1.18,-5.16,-2.24
-0.35,0.06,0.9,-1.22,-5.38,-2.31
-0.35,0.06,0.9,-1.22,-5.38,-2.31
-0.34,0.06,0.9,-1.28,-5.63,-2.44
-0.34,0.07,0.9,-1.3,-5.79,-2.53
-0.34,0.07,0.91,-1.32,-5.87,-2.52
-0.34,0.07,0.91,-1.43,-5.89,-2.47
-0.34,0.07,0.91,-1.61,-5.89,-2.37
-0.34,0.07,0.91,-1.61,-5.89,-2.37
-0.34,0.07,0.9,-1.84,-5.86,-2.25
-0.34,0.07,0.91,-2.07,-5.76,-2.12
-0.34,0.06,0.91,-2.22,-5.55,-1.98
-0.34,0.06,0.91,-2.26,-5.26,-1.82
-0.35,0.06,0.91,-2.17,-4.91,-1.65
-0.35,0.06,0.91,-2.17,-4.91,-1.65
-0.35,0.06,0.92,-2.01,-4.58,-1.5
-0.36,0.07,0.93,-1.83,-4.33,-1.35
-0.36,0.07,0.92,-1.72,-4.21,-1.26
-0.36,0.07,0.92,-1.66,-4.21,-1.22
-0.35,0.07,0.92,-1.62,-4.29,-1.19
-0.35,0.07,0.92,-1.62,-4.29,-1.19
-0.35,0.07,0.92,-1.63,-4.48,-1.15
-0.36,0.08,0.92,-1.69,-4.8,-1.06
-0.35,0.08,0.92,-1.81,-5.22,-0.96
-0.35,0.07,0.92,-1.98,-5.75,-0.85
-0.34,0.07,0.91,-2.18,-6.28,-0.7
-0.34,0.07,0.91,-2.18,-6.28,-0.7
-0.34,0.07,0.91,-2.34,-6.76,-0.51
-0.34,0.07,0.91,-2.42,-7.12,-0.29
-0.33,0.06,0.9,-2.47,-7.4,-0.11
-0.33,0.06,0.9,-2.45,-7.53,0.02
-0.33,0.06,0.9,-2.33,-7.49,0.11
-0.33,0.06,0.9,-2.33,-7.49,0.11
-0.32,0.06,0.9,-2.08,-7.27,0.16
-0.33,0.06,0.9,-1.76,-6.95,0.26
-0.33,0.06,0.89,-1.36,-6.65,0.37
-0.33,0.07,0.89,-0.96,-6.37,0.47
-0.34,0.07,0.89,-0.59,-6.18,0.52
-0.34,0.07,0.89,-0.59,-6.18,0.52
-0.33,0.07,0.89,-0.25,-6.11,0.55
-0.33,0.08,0.89,0.07,-6.11,0.61
-0.33,0.08,0.89,0.33,-6.18,0.73
-0.34,0.09,0.88,0.48,-6.31,0.89
-0.34,0.09,0.88,0.56,-6.44,1.09
-0.34,0.09,0.88,0.56,-6.44,1.09
-0.34,0.09,0.88,0.56,-6.58,1.29
-0.34,0.09,0.87,0.51,-6.66,1.48
-0.33,0.08,0.86,0.42,-6.68,1.65
-0.33,0.08,0.86,0.3,-6.56,1.8
-0.33,0.08,0.85,0.25,-6.24,1.93
-0.33,0.08,0.85,0.25,-6.24,1.93
-0.34,0.07,0.85,0.3,-5.76,2.09
-0.35,0.06,0.84,0.4,-5.21,2.32
-0.37,0.04,0.83,0.53,-4.71,2.67
-0.38,0.01,0.81,0.67,-4.28,3.12
-0.39,-0.01,0.79,0.93,-3.86,3.55
-0.39,-0.01,0.79,0.93,-3.86,3.55
-0.4,-0.04,0.78,1.46,-3.35,3.92
-0.4,-0.05,0.76,2.3,-2.54,4.15
-0.41,-0.06,0.74,3.58,-1.35,4.32
-0.42,-0.06,0.75,5.16,0.24,4.47
-0.43,-0.07,0.75,6.71,2.29,4.61
-0.43,-0.07,0.75,6.71,2.29,4.61
-0.45,-0.08,0.77,7.85,4.7,4.88
-0.5,-0.1,0.78,8.34,7.25,5.21
-0.55,-0.13,0.79,8.14,9.77,5.16
-0.58,-0.16,0.81,7.25,12.19,4.35
-0.6,-0.19,0.83,5.71,14.36,2.8
-0.6,-0.19,0.83,5.71,14.36,2.8
-0.61,-0.21,0.86,3.59,16.32,0.57
-0.62,-0.23,0.89,0.77,18.12,-2.23
-0.62,-0.26,0.91,-2.93,19.74,-5.57
-0.62,-0.3,0.93,-7.56,21.07,-9.38
-0.62,-0.36,0.94,-12.97,22.05,-13.65
-0.62,-0.36,0.94,-12.97,22.05,-13.65
-0.61,-0.42,0.96,-18.73,22.66,-18.34
-0.6,-0.48,0.98,-24.27,23.01,-23.28
-0.58,-0.53,1.0,-29.23,23.29,-28.28
-0.57,-0.56,1.03,-33.45,23.53,-33.23
-0.57,-0.59,1.04,-36.94,23.62,-38.22
-0.57,-0.59,1.04,-36.94,23.62,-38.22
-0.58,-0.62,1.05,-39.72,23.59,-43.48
-0.56,-0.65,1.06,-41.67,23.44,-49.03
-0.53,-0.67,1.06,-42.66,23.23,-54.71
-0.51,-0.68,1.07,-42.49,22.95,-60.28
-0.49,-0.68,1.08,-40.99,22.57,-65.56
-0.49,-0.68,1.08,-40.99,22.57,-65.56
-0.5,-0.66,1.08,-38.16,21.92,-70.24
-0.52,-0.64,1.1,-34.25,20.63,-74.15
-0.53,-0.6,1.12,-29.55,18.64,-77.52
-0.53,-0.57,1.13,-24.3,16.04,-80.57
-0.53,-0.53,1.15,-18.75,13.07,-83.55
-0.53,-0.53,1.15,-18.75,13.07,-83.55
-0.52,-0.48,1.15,-12.93,10.03,-86.62
-0.5,-0.43,1.17,-6.97,7.26,-89.84
-0.48,-0.37,1.19,-0.98,5.0,-92.98
-0.45,-0.3,1.2,4.93,3.25,-95.67
-0.43,-0.23,1.22,10.31,1.77,-97.6
-0.43,-0.23,1.22,10.31,1.77,-97.6
-0.41,-0.17,1.23,14.72,0.32,-98.83
-0.39,-0.13,1.23,18.0,-1.32,-99.42
-0.36,-0.09,1.22,20.3,-3.41,-99.27
-0.33,-0.07,1.2,21.79,-5.79,-98.19
-0.3,-0.05,1.18,22.78,-8.42,-96.16
-0.3,-0.05,1.18,22.78,-8.42,-96.16
-0.26,-0.05,1.16,23.35,-11.18,-93.49
-0.21,-0.05,1.13,23.77,-13.84,-90.56
-0.16,-0.07,1.1,24.47,-15.9,-87.6
-0.13,-0.09,1.07,25.79,-17.02,-84.92
-0.13,-0.1,1.05,28.08,-17.15,-82.93
-0.13,-0.1,1.05,28.08,-17.15,-82.93
-0.13,-0.09,1.03,31.6,-16.53,-82.03
-0.11,-0.06,1.02,36.31,-15.48,-82.19
-0.1,0.02,1.04,41.87,-14.36,-82.87
-0.09,0.1,1.06,47.5,-13.38,-83.71
-0.07,0.18,1.1,52.31,-12.77,-84.41
-0.07,0.18,1.1,52.31,-12.77,-84.41
-0.05,0.25,1.15,55.24,-12.77,-84.65
-0.04,0.3,1.18,55.39,-13.51,-84.15
-0.03,0.34,1.18,52.33,-15.03,-82.89
-0.04,0.34,1.18,46.1,-17.45,-81.06
-0.05,0.33,1.15,37.2,-20.7,-78.93
-0.05,0.33,1.15,37.2,-20.7,-78.93
-0.05,0.3,1.12,26.34,-24.69,-76.82
-0.04,0.26,1.1,14.3,-29.11,-74.93
-0.03,0.22,1.08,1.81,-33.42,-73.55
-0.01,0.17,1.04,-10.48,-37.04,-73.02
0.01,0.12,1.0,-21.68,-39.65,-73.46
0.01,0.12,1.0,-21.68,-39.65,-73.46
0.03,0.08,0.97,-30.82,-40.94,-74.36
0.04,0.06,0.94,-37.46,-40.94,-74.86
0.01,0.05,0.93,-41.78,-40.16,-74.5
-0.03,0.07,0.93,-44.18,-39.04,-73.38
-0.08,0.1,0.93,-45.17,-37.93,-72.01
-0.08,0.1,0.93,-45.17,-37.93,-72.01
-0.11,0.12,0.92,-45.23,-37.21,-70.64
-0.14,0.14,0.92,-44.66,-37.04,-69.19
-0.16,0.16,0.93,-43.62,-37.51,-67.85
-0.15,0.18,0.94,-42.25,-38.59,-66.88
-0.14,0.2,0.97,-40.89,-40.09,-66.07
-0.14,0.2,0.97,-40.89,-40.09,-66.07
-0.14,0.21,0.97,-39.94,-41.77,-64.92
-0.15,0.2,0.97,-39.45,-43.34,-63.38
-0.16,0.18,0.97,-39.19,-44.61,-61.83
-0.17,0.16,0.97,-38.89,-45.42,-60.54
-0.17,0.14,0.97,-38.36,-45.63,-59.45
-0.17,0.14,0.97,-38.36,-45.63,-59.45
-0.18,0.13,0.98,-37.21,-44.99,-58.45
-0.19,0.12,0.98,-35.13,-43.32,-57.61
-0.22,0.11,0.98,-31.85,-40.67,-57.09
-0.25,0.12,0.97,-27.18,-37.28,-56.92
-0.28,0.13,0.97,-21.01,-33.46,-56.74
-0.28,0.13,0.97,-21.01,-33.46,-56.74
-0.31,0.17,0.99,-13.57,-29.68,-56.13
-0.35,0.22,1.01,-5.36,-26.42,-55.02
-0.4,0.27,1.03,3.06,-23.96,-53.64
-0.44,0.33,1.05,11.13,-22.62,-52.23
-0.47,0.37,1.07,18.29,-22.62,-51.04
-0.47,0.37,1.07,18.29,-22.62,-51.04
-0.48,0.41,1.08,24.11,-24.14,-50.16
-0.49,0.43,1.08,28.4,-27.11,-49.65
-0.47,0.44,1.08,31.28,-31.21,-49.5
-0.42,0.43,1.08,32.99,-35.98,-49.47
-0.42,0.43,1.08,33.86,-40.97,-49.1
-0.38,0.43,1.08,33.86,-40.97,-49.1
-0.36,0.44,1.06,34.44,-45.59,-48.34
-0.33,0.45,1.03,35.37,-49.27,-47.4
-0.31,0.46,1.03,36.9,-51.98,-46.14
-0.3,0.48,1.05,38.82,-53.75,-44.28
-0.3,0.48,1.05,40.82,-54.65,-41.78
-0.31,0.52,1.05,40.82,-54.65,-41.78
-0.32,0.55,1.04,42.63,-54.78,-38.68
-0.34,0.57,1.04,44.07,-54.42,-35.19
-0.34,0.58,1.04,44.81,-53.96,-31.48
-0.33,0.58,1.03,44.58,-53.79,-27.64
-0.33,0.58,1.03,44.58,-53.79,-27.64
-0.32,0.57,1.01,43.32,-53.98,-23.78
-0.3,0.55,0.97,41.35,-54.52,-19.92
-0.29,0.53,0.93,39.23,-55.26,-15.99
-0.27,0.52,0.91,37.57,-55.84,-11.91
-0.26,0.5,0.89,36.66,-55.93,-7.63
-0.26,0.5,0.89,36.66,-55.93,-7.63
-0.26,0.5,0.86,36.46,-55.32,-3.15
-0.28,0.49,0.82,36.89,-54.01,1.48
-0.29,0.49,0.79,37.8,-52.11,6.13
-0.28,0.49,0.76,38.92,-49.69,10.74
-0.26,0.48,0.75,39.99,-46.81,15.41
-0.26,0.48,0.75,39.99,-46.81,15.41
-0.24,0.46,0.77,40.73,-43.38,20.11
-0.24,0.44,0.77,41.08,-39.21,24.71
-0.24,0.4,0.75,41.34,-34.15,29.11
-0.26,0.37,0.73,41.85,-28.47,33.34
-0.28,0.35,0.72,42.93,-22.33,37.4
-0.28,0.35,0.72,42.93,-22.33,37.4
-0.3,0.33,0.71,44.71,-15.93,41.58
-0.33,0.33,0.71,47.12,-9.75,46.44
-0.38,0.35,0.73,49.7,-4.12,52.38
-0.42,0.39,0.74,51.84,0.43,59.48
-0.46,0.41,0.75,52.73,3.47,67.43
-0.46,0.41,0.75,52.73,3.47,67.43
-0.49,0.43,0.75,51.75,4.65,75.69
-0.5,0.42,0.74,48.74,3.86,83.54
-0.5,0.41,0.76,44.07,1.45,90.41
-0.49,0.41,0.78,37.89,-1.64,96.2
-0.45,0.36,0.79,30.73,-4.82,101.32
-0.45,0.36,0.79,30.73,-4.82,101.32
-0.42,0.3,0.8,23.63,-6.58,106.01
-0.43,0.25,0.81,16.8,-7.18,110.47
-0.45,0.23,0.78,10.61,-6.33,114.3
-0.49,0.19,0.76,5.22,-4.36,117.27
-0.53,0.15,0.74,0.49,-1.83,119.32
-0.53,0.15,0.74,0.49,-1.83,119.32
-0.55,0.13,0.7,-3.88,0.55,120.64
-0.56,0.12,0.67,-7.84,2.32,121.64
-0.56,0.12,0.67,-11.4,3.45,122.64
-0.55,0.13,0.69,-14.74,4.03,123.68
-0.55,0.13,0.71,-17.98,4.42,124.69
-0.55,0.13,0.71,-17.98,4.42,124.69
-0.55,0.14,0.73,-21.12,4.99,125.71
-0.56,0.14,0.74,-24.26,5.95,126.9
-0.59,0.13,0.76,-27.6,7.25,128.23
-0.63,0.12,0.77,-31.51,8.67,129.41
-0.65,0.09,0.77,-36.2,9.99,130.2
-0.65,0.09,0.77,-36.2,9.99,130.2
-0.66,0.05,0.76,-41.5,10.97,130.67
-0.67,-0.01,0.75,-47.07,11.58,131.0
-0.67,-0.07,0.73,-52.42,11.73,131.2
-0.68,-0.13,0.72,-57.14,11.47,131.14
-0.67,-0.18,0.7,-60.8,10.83,130.62
-0.67,-0.18,0.7,-60.8,10.83,130.62
-0.66,-0.24,0.69,-63.19,9.97,129.44
-0.64,-0.3,0.68,-64.07,8.95,127.56
-0.61,-0.34,0.67,-63.22,8.0,125.16
-0.59,-0.37,0.65,-60.46,7.39,122.43
-0.56,-0.39,0.65,-55.77,7.32,119.65
-0.56,-0.39,0.65,-55.77,7.32,119.65
-0.55,-0.38,0.65,-49.29,7.87,116.96
-0.55,-0.35,0.65,-41.34,8.91,114.6
-0.57,-0.29,0.65,-32.44,10.11,112.9
-0.59,-0.22,0.64,-23.22,10.92,112.13
-0.61,-0.15,0.64,-14.37,10.8,112.59
-0.61,-0.15,0.64,-14.37,10.8,112.59
-0.64,-0.07,0.66,-6.7,9.42,114.32
-0.66,-0.01,0.68,-1.02,6.69,116.82
-0.68,0.02,0.69,2.17,2.64,119.36
-0.68,0.03,0.69,2.69,-2.48,121.31
-0.64,0.01,0.69,0.87,-8.17,122.39
-0.64,0.01,0.69,0.87,-8.17,122.39
-0.57,-0.02,0.72,-2.84,-13.38,122.54
-0.47,-0.06,0.74,-7.83,-17.08,122.04
-0.4,-0.1,0.76,-13.43,-18.44,121.33
-0.37,-0.14,0.78,-18.96,-17.06,120.85
-0.39,-0.18,0.78,-23.9,-13.07,120.51
-0.39,-0.18,0.78,-23.9,-13.07,120.51
-0.46,-0.22,0.76,-27.97,-7.1,119.85
-0.52,-0.26,0.73,-31.13,-0.36,118.31
-0.57,-0.29,0.72,-33.37,6.01,115.77
-0.6,-0.3,0.71,-34.58,11.33,112.51
-0.6,-0.29,0.74,-34.75,15.4,108.98
-0.6,-0.29,0.74,-34.75,15.4,108.98
-0.58,-0.27,0.77,-34.24,18.21,105.67
-0.57,-0.23,0.79,-33.56,19.89,102.86
-0.57,-0.21,0.81,-33.26,20.47,100.53
-0.56,-0.21,0.8,-33.59,19.89,98.71
-0.54,-0.21,0.78,-34.49,18.22,97.52
-0.54,-0.21,0.78,-34.49,18.22,97.52
-0.52,-0.22,0.77,-35.82,15.79,97.0
-0.5,-0.24,0.75,-37.33,13.01,96.84
-0.47,-0.28,0.74,-38.76,10.36,96.67
-0.44,-0.32,0.73,-39.67,8.25,96.14
-0.4,-0.35,0.73,-39.67,7.13,95.13
-0.4,-0.35,0.73,-39.67,7.13,95.13
-0.37,-0.37,0.74,-38.45,7.44,93.65
-0.35,-0.38,0.77,-35.87,9.46,91.86
-0.35,-0.38,0.8,-32.12,13.17,89.82
-0.36,-0.37,0.83,-27.63,18.29,87.61
-0.39,-0.36,0.85,-22.94,24.27,85.22
-0.39,-0.36,0.85,-22.94,24.27,85.22
-0.42,-0.34,0.87,-18.54,30.46,82.46
-0.44,-0.32,0.88,-14.73,36.37,79.43
-0.45,-0.3,0.9,-11.83,41.65,76.31
-0.46,-0.3,0.9,-10.03,45.96,73.32
-0.44,-0.29,0.9,-9.29,48.98,70.74
-0.44,-0.29,0.9,-9.29,48.98,70.74
-0.42,-0.3,0.9,-9.53,50.62,68.84
-0.42,-0.3,0.9,-10.64,51.04,67.77
-0.43,-0.31,0.9,-12.38,50.53,67.09
-0.43,-0.34,0.91,-14.24,49.49,66.12
-0.41,-0.37,0.93,-15.79,48.33,64.63
-0.41,-0.37,0.93,-15.79,48.33,64.63
-0.39,-0.35,0.96,-17.02,47.62,62.86
-0.42,-0.35,0.97,-18.76,47.12,60.16
-0.33,-0.44,0.99,-19.64,47.11,54.98
-0.32,-0.37,1.06,-20.3,48.95,50.51
-0.43,-0.28,1.13,-24.53,49.66,47.76
-0.43,-0.28,1.13,-24.53,49.66,47.76
-0.42,-0.37,1.04,-31.05,49.76,43.14
-0.32,-0.56,0.86,-35.62,51.27,37.45
-0.3,-0.62,0.84,-36.23,53.36,34.56
-0.37,-0.54,0.96,-33.72,55.3,33.96
-0.38,-0.55,0.97,-29.98,57.17,32.48
-0.38,-0.55,0.97,-29.98,57.17,32.48
-0.37,-0.57,0.89,-25.06,59.12,31.77
-0.44,-0.56,0.92,-18.83,60.44,32.42
-0.53,-0.44,1.02,-12.13,60.6,31.12
-0.5,-0.44,1.02,-6.81,59.35,24.12
-0.35,-0.65,0.93,-1.35,57.42,14.0
-0.35,-0.65,0.93,-1.35,57.42,14.0
-0.2,-0.7,0.94,6.64,57.36,6.84
-0.29,-0.49,1.05,14.59,58.2,6.34
-0.45,-0.3,1.07,20.4,58.22,7.18
-0.45,-0.34,1.0,25.13,57.59,3.22
-0.39,-0.46,0.99,30.1,56.54,-2.79
-0.39,-0.46,0.99,30.1,56.54,-2.79
-0.41,-0.46,1.02,35.3,55.39,-6.76
-0.47,-0.36,1.04,40.14,54.0,-9.62
-0.48,-0.28,1.06,44.33,52.17,-13.26
-0.48,-0.23,1.08,47.4,49.84,-17.67
-0.47,-0.2,1.1,48.81,47.11,-22.36
-0.47,-0.2,1.1,48.81,47.11,-22.36
-0.46,-0.19,1.1,48.54,44.18,-27.1
-0.44,-0.18,1.09,46.89,41.29,-31.79
-0.42,-0.17,1.08,44.29,38.56,-36.21
-0.42,-0.17,1.07,41.11,35.99,-40.36
-0.42,-0.17,1.05,37.74,33.57,-44.35
-0.42,-0.17,1.05,37.74,33.57,-44.35
-0.43,-0.18,1.02,34.58,31.24,-48.28
-0.44,-0.18,1.0,31.97,28.89,-52.17
-0.45,-0.18,0.99,30.01,26.48,-56.08
-0.45,-0.17,0.98,28.77,24.02,-60.11
-0.44,-0.16,0.97,28.37,21.57,-64.18
-0.44,-0.16,0.97,28.37,21.57,-64.18
-0.43,-0.15,0.96,28.75,19.3,-68.09
-0.4,-0.11,0.98,29.88,17.28,-71.41
-0.43,-0.07,1.0,30.83,15.42,-74.26
-0.37,-0.08,1.0,31.71,13.78,-77.84
-0.36,-0.03,1.03,32.13,12.8,-80.0
-0.36,-0.03,1.03,32.13,12.8,-80.0
-0.4,0.05,1.05,31.15,11.8,-81.12
-0.38,0.0,1.0,28.98,10.69,-83.1
-0.37,-0.06,0.97,27.55,10.02,-85.09
-0.37,-0.04,1.02,26.97,9.73,-86.78
-0.37,0.01,1.02,25.79,9.24,-87.91
-0.37,0.01,1.02,25.79,9.24,-87.91
-0.39,-0.0,0.97,24.63,8.61,-88.4
-0.38,-0.05,0.97,24.52,7.79,-88.89
-0.4,-0.01,0.99,25.15,6.74,-88.72
-0.42,0.04,1.0,25.75,5.17,-88.47
-0.43,0.07,1.0,26.25,3.35,-88.8
-0.43,0.07,1.0,26.25,3.35,-88.8
-0.44,0.1,1.02,26.62,1.36,-89.66
-0.46,0.15,1.05,26.53,-0.68,-91.22
-0.47,0.21,1.07,25.29,-3.04,-94.0
-0.46,0.25,1.07,22.51,-5.67,-97.67
-0.43,0.25,1.04,18.67,-8.21,-101.25
-0.43,0.25,1.04,18.67,-8.21,-101.25
-0.36,0.2,1.01,15.02,-10.35,-103.59
-0.34,0.2,1.0,12.53,-11.46,-103.09
-0.39,0.22,1.04,11.36,-11.71,-100.44
-0.42,0.24,1.07,10.58,-11.71,-97.96
-0.43,0.3,1.11,8.57,-12.17,-96.18
-0.43,0.3,1.11,8.57,-12.17,-96.18
-0.42,0.34,1.11,4.03,-13.39,-94.87
-0.4,0.26,1.05,-2.75,-15.28,-93.96
-0.35,0.14,0.99,-9.26,-16.99,-92.75
-0.31,0.06,0.97,-13.89,-18.02,-90.3
-0.32,0.04,0.94,-16.36,-18.55,-86.21
-0.32,0.04,0.94,-16.36,-18.55,-86.21
-0.35,0.03,0.92,-16.34,-18.68,-81.81
-0.33,-0.01,0.91,-14.05,-18.58,-78.33
-0.32,-0.02,0.92,-10.05,-18.32,-74.64
-0.33,-0.01,0.92,-5.01,-17.99,-70.83
-0.32,0.03,0.92,0.65,-17.64,-67.33
-0.32,0.03,0.92,0.65,-17.64,-67.33
-0.31,0.04,0.93,6.46,-17.2,-63.99
-0.31,0.04,0.93,12.28,-16.68,-60.79
-0.31,0.04,0.93,18.21,-15.92,-57.65
-0.32,0.06,0.93,24.2,-14.96,-54.61
-0.32,0.1,0.96,29.76,-13.82,-51.48
-0.32,0.1,0.96,29.76,-13.82,-51.48
-0.33,0.17,0.98,33.87,-12.76,-48.02
-0.36,0.23,0.99,35.65,-12.1,-44.44
-0.36,0.22,0.97,35.23,-11.97,-41.81
-0.33,0.17,0.96,33.63,-12.12,-40.09
-0.33,0.16,0.95,31.68,-11.95,-37.91
-0.33,0.16,0.95,31.68,-11.95,-37.91
-0.36,0.18,0.95,29.42,-11.54,-35.31
-0.38,0.17,0.94,26.79,-11.27,-33.22
-0.38,0.15,0.93,23.96,-11.29,-31.65
-0.38,0.13,0.93,20.96,-11.73,-30.47
-0.37,0.11,0.92,17.87,-12.56,-29.62
-0.37,0.11,0.92,17.87,-12.56,-29.62
-0.36,0.1,0.92,14.88,-13.63,-29.1
-0.34,0.08,0.91,12.03,-14.91,-28.73
-0.33,0.07,0.91,9.38,-16.17,-28.18
-0.33,0.07,0.91,6.82,-17.27,-27.32
-0.33,0.07,0.91,4.29,-18.24,-26.28
-0.33,0.07,0.91,4.29,-18.24,-26.28
-0.32,0.05,0.89,2.0,-19.01,-25.23
-0.31,0.02,0.87,0.43,-19.41,-24.15
-0.31,-0.01,0.85,0.05,-19.27,-22.85
-0.32,-0.01,0.86,0.91,-18.73,-21.41
-0.32,-0.0,0.88,2.64,-17.96,-20.02
-0.32,-0.0,0.88,2.64,-17.96,-20.02
-0.32,0.01,0.88,4.7,-17.01,-18.66
-0.32,0.02,0.89,6.67,-16.12,-17.39
-0.32,0.02,0.89,8.4,-15.32,-16.18
-0.31,0.02,0.89,9.8,-14.58,-14.85
