ax,ay,az,gx,gy,gz
0.0,0.17,1.0,2.72,3.01,2.5
-0.0,0.17,1.0,2.49,2.78,2.52
-0.0,0.17,1.0,1.86,2.35,2.47
0.01,0.16,1.0,0.89,1.75,2.35
0.01,0.16,1.0,-0.27,1.1,2.28
0.02,0.14,1.0,-1.49,0.48,2.26
0.02,0.14,1.0,-1.49,0.48,2.26
0.02,0.12,0.99,-2.62,-0.06,2.31
0.03,0.11,0.99,-3.49,-0.52,2.47
0.03,0.1,0.98,-3.95,-0.9,2.68
0.03,0.1,0.98,-3.93,-1.07,2.91
0.04,0.09,0.98,-3.42,-0.99,3.08
0.04,0.09,0.98,-3.42,-0.99,3.08
0.04,0.1,0.98,-2.57,-0.65,3.22
0.03,0.1,0.98,-1.59,-0.13,3.36
0.03,0.11,0.98,-0.66,0.4,3.49
0.02,0.11,0.98,0.18,0.83,3.61
0.02,0.12,0.98,0.88,1.08,3.71
0.02,0.12,0.98,0.88,1.08,3.71
0.01,0.12,0.97,1.45,1.14,3.82
0.01,0.12,0.97,1.9,1.03,3.88
0.01,0.13,0.97,2.21,0.77,3.89
0.0,0.14,0.97,2.35,0.32,3.81
0.0,0.15,0.98,2.32,-0.21,3.66
0.0,0.15,0.98,2.32,-0.21,3.66
0.01,0.15,0.98,2.0,-0.71,3.47
0.01,0.15,0.98,1.29,-1.15,3.26
0.02,0.15,0.98,0.32,-1.41,3.02
0.02,0.13,0.98,-0.72,-1.49,2.75
0.02,0.12,0.97,-1.64,-1.38,2.4
0.02,0.12,0.97,-1.64,-1.38,2.4
0.02,0.1,0.97,-2.25,-1.11,2.04
0.02,0.1,0.96,-2.53,-0.72,1.66
0.02,0.1,0.97,-2.46,-0.26,1.3
0.03,0.09,0.96,-2.09,0.26,1.0
0.04,0.1,0.96,-1.58,0.72,0.82
0.04,0.1,0.96,-1.58,0.72,0.82
0.03,0.1,0.96,-0.95,1.16,0.76
0.03,0.1,0.96,-0.21,1.58,0.71
0.03,0.11,0.96,0.6,1.88,0.67
0.02,0.12,0.97,1.34,2.07,0.67
0.01,0.14,0.97,1.87,2.07,0.67
0.01,0.14,0.97,1.87,2.07,0.67
0.01,0.15,0.98,2.08,1.81,0.67
0.01,0.15,0.98,1.79,1.24,0.66
0.02,0.15,0.99,0.96,0.47,0.6
0.03,0.13,0.99,-0.25,-0.34,0.47
0.04,0.12,0.98,-1.62,-0.96,0.34
0.04,0.12,0.98,-1.62,-0.96,0.34
0.04,0.12,0.98,-2.84,-1.2,0.11
0.04,0.11,0.98,-3.81,-1.07,-0.16
0.04,0.1,0.98,-4.52,-0.63,-0.43
0.03,0.1,0.98,-4.9,0.07,-0.69
0.03,0.09,0.97,-4.9,0.94,-0.89
0.03,0.09,0.97,-4.9,0.94,-0.89
0.01,0.1,0.97,-4.55,1.8,-0.99
0.01,0.1,0.98,-3.91,2.48,-0.94
-0.0,0.11,0.98,-3.02,2.88,-0.78
-0.01,0.12,0.99,-2.07,2.95,-0.52
-0.01,0.13,0.99,-1.14,2.68,-0.24
-0.01,0.13,0.99,-1.14,2.68,-0.24
-0.01,0.14,1.0,-0.27,2.16,0.03
-0.01,0.15,1.0,0.44,1.47,0.29
-0.0,0.16,1.0,0.89,0.74,0.53
-0.0,0.17,1.01,0.99,0.0,0.68
-0.0,0.17,1.01,0.7,-0.68,0.73
-0.0,0.17,1.01,0.7,-0.68,0.73
0.01,0.17,1.0,0.05,-1.19,0.63
0.01,0.16,1.0,-0.87,-1.51,0.49
0.02,0.15,0.99,-1.88,-1.65,0.38
0.02,0.14,0.98,-2.81,-1.63,0.35
0.02,0.12,0.98,-3.54,-1.48,0.41
0.02,0.12,0.98,-3.54,-1.48,0.41
0.02,0.11,0.97,-3.97,-1.32,0.55
0.03,0.11,0.97,-3.97,-1.13,0.76
0.03,0.1,0.96,-3.48,-0.87,1.07
0.02,0.11,0.96,-2.56,-0.6,1.48
0.02,0.12,0.97,-1.36,-0.32,1.91
0.02,0.12,0.97,-1.36,-0.32,1.91
0.02,0.12,0.97,-0.09,-0.1,2.35
0.02,0.13,0.97,1.03,0.09,2.76
0.02,0.14,0.97,1.94,0.23,3.08
0.01,0.16,0.98,2.59,0.3,3.31
-0.0,0.17,0.99,2.9,0.29,3.34
-0.0,0.17,0.99,2.9,0.29,3.34
-0.01,0.18,1.0,2.7,0.16,3.17
-0.0,0.18,1.0,1.82,-0.11,2.88
0.0,0.17,1.0,0.34,-0.58,2.58
0.01,0.15,0.99,-1.47,-1.13,2.31
0.01,0.15,0.99,-3.26,-1.7,2.09
0.02,0.12,0.98,-3.26,-1.7,2.09
0.02,0.1,0.97,-4.71,-2.17,1.95
0.03,0.09,0.96,-5.61,-2.45,1.89
0.03,0.09,0.96,-5.91,-2.54,1.89
0.04,0.09,0.96,-5.64,-2.39,1.99
0.04,0.09,0.96,-4.93,-1.99,2.11
0.04,0.09,0.96,-4.93,-1.99,2.11
0.03,0.11,0.97,-3.89,-1.37,2.24
0.03,0.12,0.97,-2.78,-0.69,2.39
0.02,0.13,0.97,-1.8,-0.12,2.6
0.01,0.13,0.97,-1.06,0.25,2.83
0.01,0.13,0.97,-1.06,0.25,2.83
0.01,0.14,0.98,-0.59,0.39,3.05
0.01,0.14,0.98,-0.37,0.31,3.17
0.01,0.14,0.98,-0.34,0.06,3.19
0.01,0.14,0.98,-0.51,-0.33,3.18
0.01,0.13,0.98,-0.87,-0.77,3.11
0.01,0.13,0.98,-0.87,-0.77,3.11
0.01,0.13,0.98,-1.4,-1.25,2.95
0.02,0.13,0.98,-2.09,-1.71,2.74
0.03,0.12,0.98,-2.84,-2.1,2.52
0.04,0.11,0.98,-3.61,-2.34,2.35
0.04,0.1,0.98,-4.36,-2.3,2.2
0.04,0.1,0.98,-4.36,-2.3,2.2
0.03,0.08,0.97,-4.96,-1.95,2.01
0.03,0.06,0.96,-5.3,-1.38,1.82
0.02,0.06,0.96,-5.27,-0.64,1.64
0.0,0.06,0.95,-4.79,0.26,1.5
-0.01,0.06,0.95,-3.97,1.13,1.37
-0.01,0.06,0.95,-3.97,1.13,1.37
-0.02,0.06,0.95,-3.08,1.84,1.3
-0.01,0.06,0.95,-2.36,2.35,1.3
0.0,0.04,0.96,-1.81,2.76,1.4
0.02,0.02,0.96,-1.43,3.22,1.57
0.01,0.0,0.96,-1.17,3.78,1.79
0.01,0.0,0.96,-1.17,3.78,1.79
-0.0,-0.02,0.96,-0.99,4.47,1.89
-0.01,-0.04,0.96,-0.82,5.31,1.66
-0.02,-0.06,0.97,-0.75,6.28,1.11
-0.02,-0.08,0.99,-0.72,7.5,0.23
-0.02,-0.09,1.0,-0.73,9.0,-0.88
-0.02,-0.09,1.0,-0.73,9.0,-0.88
-0.03,-0.09,1.01,-0.77,10.71,-2.2
-0.03,-0.09,1.01,-0.88,12.5,-3.68
-0.04,-0.08,1.02,-1.13,14.23,-5.32
-0.05,-0.07,1.03,-1.6,15.71,-7.07
-0.06,-0.07,1.03,-2.38,16.77,-8.82
-0.06,-0.07,1.03,-2.38,16.77,-8.82
-0.06,-0.06,1.03,-3.49,17.35,-10.41
-0.06,-0.06,1.04,-4.87,17.51,-11.8
-0.06,-0.06,1.04,-6.42,17.42,-13.07
-0.07,-0.06,1.04,-7.93,17.27,-14.27
-0.07,-0.06,1.04,-9.28,17.17,-15.44
-0.07,-0.06,1.04,-9.28,17.17,-15.44
-0.09,-0.05,1.03,-10.43,17.17,-16.63
-0.11,-0.04,1.01,-11.38,17.26,-17.87
-0.14,-0.03,0.99,-12.17,17.19,-19.1
-0.16,-0.01,0.98,-12.88,16.7,-20.33
-0.17,-0.0,0.98,-13.66,15.8,-21.62
-0.17,-0.0,0.98,-13.66,15.8,-21.62
-0.17,-0.01,0.98,-14.65,14.54,-23.15
-0.17,-0.03,0.99,-15.9,13.0,-25.24
-0.15,-0.06,0.98,-17.16,11.41,-28.06
-0.12,-0.09,0.98,-17.95,10.01,-31.38
-0.1,-0.1,0.98,-18.0,8.95,-34.89
-0.1,-0.1,0.98,-18.0,8.95,-34.89
-0.08,-0.1,0.98,-17.24,8.25,-38.28
-0.08,-0.07,0.99,-15.83,7.83,-41.47
-0.08,-0.05,1.01,-14.16,7.56,-44.5
-0.08,-0.02,1.01,-12.68,7.18,-47.45
-0.08,-0.0,1.01,-11.66,6.44,-50.26
-0.08,-0.0,1.01,-11.66,6.44,-50.26
-0.07,0.0,1.02,-11.16,5.29,-52.9
-0.05,-0.0,1.03,-11.11,3.8,-55.3
-0.03,-0.02,1.04,-11.4,2.23,-57.41
-0.01,-0.03,1.05,-11.73,0.69,-59.28
-0.01,-0.04,1.06,-11.88,-0.76,-60.96
-0.01,-0.04,1.06,-11.88,-0.76,-60.96
-0.02,-0.04,1.06,-11.63,-2.15,-62.54
-0.03,-0.03,1.05,-10.89,-3.54,-64.18
-0.03,-0.02,1.05,-9.59,-4.98,-66.02
-0.03,0.0,1.05,-7.88,-6.53,-68.01
-0.01,0.03,1.06,-5.98,-8.34,-70.02
-0.01,0.03,1.06,-5.98,-8.34,-70.02
0.01,0.06,1.06,-4.16,-10.41,-71.94
0.04,0.07,1.07,-2.68,-12.7,-73.69
0.07,0.06,1.08,-1.87,-15.09,-75.12
0.09,0.04,1.07,-1.77,-17.48,-76.12
0.11,0.01,1.05,-2.11,-19.81,-76.78
0.11,0.01,1.05,-2.11,-19.81,-76.78
0.13,-0.03,1.02,-2.55,-21.97,-77.22
0.14,-0.06,1.0,-2.73,-23.96,-77.53
0.16,-0.06,0.97,-2.29,-25.68,-77.78
0.15,-0.05,0.95,-0.95,-27.07,-78.19
0.13,-0.01,0.95,1.21,-28.2,-78.89
0.13,-0.01,0.95,1.21,-28.2,-78.89
0.1,0.05,0.97,3.81,-29.03,-79.76
0.08,0.11,1.0,6.26,-29.6,-80.73
0.06,0.17,1.02,7.79,-30.09,-81.69
0.06,0.2,1.04,7.78,-30.81,-82.38
0.07,0.22,1.05,5.85,-31.99,-82.5
0.07,0.22,1.05,5.85,-31.99,-82.5
0.07,0.21,1.06,2.06,-33.66,-81.98
0.06,0.2,1.05,-3.03,-35.9,-80.98
0.06,0.2,1.01,-8.48,-38.34,-79.53
0.07,0.17,0.98,-13.57,-40.76,-77.64
0.09,0.18,0.99,-18.16,-43.88,-75.29
0.09,0.18,0.99,-18.16,-43.88,-75.29
0.11,0.2,0.98,-22.47,-47.08,-72.55
0.14,0.2,0.96,-26.73,-49.56,-69.95
0.17,0.19,0.93,-31.0,-51.05,-67.84
0.22,0.17,0.9,-34.87,-51.39,-65.98
0.27,0.13,0.88,-37.64,-50.25,-63.9
0.27,0.13,0.88,-37.64,-50.25,-63.9
0.29,0.1,0.87,-38.94,-47.32,-61.45
0.28,0.08,0.89,-38.55,-42.69,-58.65
0.25,0.08,0.93,-36.3,-36.55,-55.44
0.2,0.09,0.95,-32.42,-29.24,-51.83
0.13,0.11,0.96,-27.5,-21.69,-48.05
0.13,0.11,0.96,-27.5,-21.69,-48.05
0.07,0.14,0.96,-22.0,-14.73,-44.4
0.03,0.18,0.97,-16.09,-9.03,-41.11
0.02,0.21,0.98,-10.1,-4.91,-38.29
0.01,0.23,0.99,-4.5,-2.58,-35.88
0.01,0.26,0.99,0.44,-1.96,-33.71
0.01,0.26,0.99,0.44,-1.96,-33.71
0.01,0.28,0.99,4.53,-2.9,-31.76
0.03,0.27,1.0,7.68,-5.3,-29.94
0.05,0.26,1.01,9.84,-8.75,-28.11
0.07,0.24,1.02,11.31,-12.59,-26.27
0.08,0.24,1.01,12.42,-16.18,-24.62
0.08,0.24,1.01,12.42,-16.18,-24.62
0.11,0.23,0.99,13.42,-19.1,-23.4
0.14,0.23,0.99,14.42,-21.08,-22.59
0.17,0.24,1.0,15.45,-21.94,-22.02
0.2,0.26,1.02,16.53,-21.37,-21.55
0.2,0.28,1.04,17.66,-19.16,-21.22
0.2,0.28,1.04,17.66,-19.16,-21.22
0.18,0.29,1.05,18.72,-15.41,-21.05
0.16,0.29,1.05,19.59,-10.77,-20.81
0.14,0.27,1.04,19.94,-6.19,-20.1
0.12,0.25,1.02,19.67,-2.46,-18.66
0.11,0.24,1.0,19.04,-0.05,-16.64
0.11,0.24,1.0,19.04,-0.05,-16.64
0.1,0.23,0.98,18.38,0.93,-14.4
0.11,0.22,0.96,18.02,0.55,-12.15
0.13,0.22,0.95,18.16,-0.93,-9.95
0.15,0.23,0.94,18.85,-3.18,-7.77
0.17,0.25,0.95,19.88,-5.92,-5.65
0.17,0.25,0.95,19.88,-5.92,-5.65
0.19,0.26,0.96,20.94,-8.78,-3.62
0.2,0.27,0.97,21.74,-11.4,-1.68
0.21,0.27,0.98,22.07,-13.55,0.03
0.2,0.26,0.97,21.94,-15.09,1.49
0.2,0.25,0.99,21.58,-15.92,2.73
0.2,0.25,0.99,21.58,-15.92,2.73
0.19,0.26,1.01,21.23,-15.74,3.77
0.17,0.28,1.02,21.09,-14.35,4.58
0.16,0.31,1.02,21.08,-11.95,5.2
0.15,0.33,1.02,20.93,-8.97,5.76
0.15,0.35,1.02,20.2,-6.01,6.43
0.15,0.35,1.02,20.2,-6.01,6.43
0.14,0.35,1.01,18.69,-3.48,7.4
0.14,0.35,1.01,16.39,-1.7,8.77
0.14,0.33,1.0,13.46,-0.73,10.55
0.14,0.31,0.98,10.08,-0.61,12.77
0.14,0.27,0.97,6.52,-1.32,15.4
0.14,0.27,0.97,6.52,-1.32,15.4
0.13,0.23,0.96,3.14,-2.7,18.34
0.11,0.21,0.95,0.26,-4.55,21.42
0.1,0.2,0.94,-1.75,-6.63,24.22
0.11,0.2,0.94,-2.74,-8.78,26.49
0.12,0.2,0.95,-2.94,-10.91,28.27
0.12,0.2,0.95,-2.94,-10.91,28.27
0.12,0.21,0.97,-2.71,-12.88,29.72
0.12,0.23,0.99,-2.44,-14.44,30.93
0.13,0.24,1.0,-2.34,-15.48,31.94
0.14,0.23,1.0,-2.58,-15.91,32.92
0.14,0.22,1.0,-3.22,-15.77,34.04
0.14,0.22,1.0,-3.22,-15.77,34.04
0.14,0.21,0.99,-4.14,-15.11,35.34
0.13,0.21,0.98,-5.09,-14.0,36.71
0.13,0.2,0.98,-5.8,-12.59,38.12
0.11,0.2,0.98,-6.29,-11.05,39.61
0.09,0.21,0.98,-6.65,-9.52,41.11
0.09,0.21,0.98,-6.65,-9.52,41.11
0.07,0.23,0.98,-6.96,-8.12,42.46
0.05,0.24,0.98,-7.39,-6.95,43.5
0.05,0.24,0.97,-8.09,-6.12,44.31
0.05,0.23,0.97,-9.19,-5.73,45.18
0.04,0.22,0.96,-10.75,-5.85,46.19
0.04,0.22,0.96,-10.75,-5.85,46.19
0.03,0.22,0.95,-12.57,-6.47,47.36
0.03,0.21,0.95,-14.37,-7.51,48.51
0.03,0.21,0.96,-15.81,-8.63,49.57
0.02,0.24,0.98,-16.72,-9.41,50.42
0.03,0.27,1.01,-17.13,-9.26,50.87
0.03,0.27,1.01,-17.13,-9.26,50.87
0.04,0.29,1.03,-17.26,-7.94,50.95
0.04,0.3,1.03,-17.42,-5.61,50.81
0.04,0.3,1.04,-17.84,-2.57,50.68
0.02,0.29,1.03,-18.59,0.84,50.9
0.0,0.27,1.01,-19.65,4.17,51.68
0.0,0.27,1.01,-19.65,4.17,51.68
-0.01,0.24,0.99,-20.88,6.95,53.06
-0.03,0.22,0.97,-22.11,8.98,54.73
-0.04,0.22,0.97,-23.04,10.05,56.49
-0.04,0.22,0.98,-23.54,10.16,58.15
-0.02,0.17,0.95,-24.5,9.48,59.66
-0.02,0.17,0.95,-24.5,9.48,59.66
-0.01,0.13,0.93,-23.85,8.18,62.08
-0.02,0.15,0.96,-21.11,7.65,63.9
-0.02,0.2,1.0,-18.06,6.69,64.48
-0.05,0.3,1.05,-15.73,5.63,65.08
-0.08,0.34,1.06,-15.33,4.23,65.13
-0.08,0.34,1.06,-15.33,4.23,65.13
-0.07,0.32,1.05,-16.63,2.49,64.27
-0.06,0.29,1.04,-18.9,0.93,63.45
-0.05,0.27,1.03,-21.7,-0.36,62.7
-0.02,0.26,1.02,-24.73,-1.16,61.65
0.0,0.24,1.01,-27.79,-1.38,60.5
0.0,0.24,1.01,-27.79,-1.38,60.5
0.02,0.22,1.0,-30.7,-0.82,59.26
0.05,0.18,0.98,-33.2,0.42,58.05
0.05,0.15,0.96,-34.9,2.25,57.24
0.05,0.14,0.95,-35.71,4.35,56.79
0.04,0.12,0.94,-35.54,6.49,56.57
0.04,0.12,0.94,-35.54,6.49,56.57
0.02,0.1,0.93,-34.46,8.47,56.58
-0.01,0.09,0.93,-32.8,10.07,56.91
-0.04,0.09,0.93,-30.83,11.09,57.42
-0.06,0.09,0.93,-28.68,11.43,57.85
-0.07,0.09,0.94,-26.38,11.02,58.07
-0.07,0.09,0.94,-26.38,11.02,58.07
-0.06,0.09,0.96,-24.1,9.98,58.33
-0.05,0.09,0.98,-22.34,8.43,58.76
-0.04,0.09,0.99,-21.36,6.56,59.19
-0.03,0.08,0.98,-21.08,4.68,59.44
-0.03,0.07,0.97,-21.12,3.08,59.43
-0.03,0.07,0.97,-21.12,3.08,59.43
-0.02,0.07,0.96,-21.01,2.12,59.09
-0.02,0.09,0.95,-20.57,1.9,58.31
-0.02,0.11,0.93,-19.97,2.3,57.16
-0.02,0.12,0.92,-19.35,3.25,55.94
-0.02,0.13,0.9,-18.96,4.44,55.02
-0.02,0.13,0.9,-18.96,4.44,55.02
-0.02,0.12,0.89,-18.9,5.68,54.43
0.0,0.09,0.89,-19.17,6.7,54.34
-0.01,0.05,0.9,-19.68,7.45,55.04
-0.02,0.01,0.9,-20.26,7.89,56.44
-0.05,-0.04,0.91,-20.68,8.08,58.05
-0.05,-0.04,0.91,-20.68,8.08,58.05
-0.07,-0.07,0.92,-20.71,7.93,59.38
-0.08,-0.1,0.92,-20.21,7.42,60.24
-0.1,-0.1,0.93,-19.43,6.73,61.0
-0.14,-0.06,0.91,-18.78,5.57,61.53
-0.14,-0.08,0.85,-17.52,3.86,61.03
-0.14,-0.08,0.85,-17.52,3.86,61.03
-0.12,-0.1,0.83,-13.63,2.6,59.66
-0.11,-0.07,0.88,-7.54,2.03,57.91
-0.12,-0.01,0.95,-1.65,1.71,56.15
-0.14,0.06,1.0,2.02,1.35,54.41
-0.15,0.08,1.0,2.18,0.61,52.67
-0.15,0.08,1.0,2.18,0.61,52.67
-0.16,0.03,0.94,-0.7,-0.89,50.97
-0.13,-0.06,0.9,-4.3,-2.67,48.83
-0.09,-0.13,0.87,-7.14,-3.92,46.84
-0.08,-0.15,0.87,-8.28,-4.63,45.66
-0.06,-0.13,0.87,-7.49,-4.51,45.02
-0.06,-0.13,0.87,-7.49,-4.51,45.02
-0.08,-0.09,0.87,-5.37,-3.65,44.95
-0.1,-0.05,0.87,-2.82,-2.67,45.14
-0.11,-0.03,0.86,-0.55,-1.96,45.27
-0.11,-0.02,0.85,1.14,-1.8,45.62
-0.12,-0.03,0.85,2.31,-2.26,46.2
-0.12,-0.03,0.85,2.31,-2.26,46.2
-0.12,-0.05,0.85,3.37,-3.11,46.85
-0.11,-0.05,0.86,4.7,-4.03,47.28
-0.11,-0.04,0.88,6.26,-4.79,47.36
-0.1,-0.04,0.9,7.58,-5.3,47.36
-0.09,-0.06,0.91,8.4,-5.7,47.3
-0.09,-0.06,0.91,8.4,-5.7,47.3
-0.08,-0.07,0.9,8.93,-5.88,47.19
-0.07,-0.07,0.9,9.44,-5.67,47.07
-0.06,-0.06,0.9,9.95,-5.17,46.93
-0.06,-0.07,0.89,10.27,-4.39,46.81
-0.05,-0.07,0.87,10.53,-3.47,46.67
-0.05,-0.07,0.87,10.53,-3.47,46.67
-0.04,-0.08,0.86,10.96,-2.38,46.63
-0.04,-0.11,0.87,11.65,-1.09,46.82
-0.04,-0.13,0.89,12.51,0.42,47.21
-0.03,-0.14,0.9,13.43,2.18,47.68
-0.02,-0.16,0.92,14.37,4.27,48.08
-0.02,-0.16,0.92,14.37,4.27,48.08
-0.03,-0.17,0.92,15.44,6.63,48.45
-0.04,-0.18,0.93,16.66,9.08,48.74
-0.06,-0.17,0.93,18.11,11.47,48.91
-0.09,-0.15,0.91,19.79,13.55,48.79
-0.1,-0.14,0.9,21.92,15.16,48.28
-0.1,-0.14,0.9,21.92,15.16,48.28
-0.1,-0.13,0.88,24.61,16.25,47.54
-0.09,-0.12,0.89,27.67,16.8,46.67
-0.09,-0.1,0.9,30.77,16.93,46.05
-0.08,-0.09,0.92,33.51,16.59,45.27
-0.05,-0.11,0.93,35.81,16.13,43.95
-0.05,-0.11,0.93,35.81,16.13,43.95
-0.02,-0.13,0.95,37.68,15.96,42.62
0.01,-0.14,0.96,39.19,16.23,41.54
0.03,-0.14,0.99,40.41,17.17,40.61
0.03,-0.12,1.01,41.54,18.88,39.9
0.02,-0.12,1.02,42.56,21.52,39.22
0.02,-0.12,1.02,42.56,21.52,39.22
0.0,-0.11,1.02,43.34,24.65,38.42
-0.01,-0.09,1.03,43.69,27.82,37.64
-0.03,-0.06,1.02,43.29,30.64,37.19
-0.05,-0.05,1.01,42.05,32.64,37.17
-0.07,-0.05,1.03,39.96,33.51,37.52
-0.07,-0.05,1.03,39.96,33.51,37.52
-0.09,-0.05,1.06,36.55,33.26,38.45
-0.12,-0.07,1.05,30.98,31.41,39.92
-0.13,-0.12,1.04,24.47,28.13,40.82
-0.13,-0.17,1.04,18.49,24.81,40.44
-0.11,-0.21,1.03,14.05,21.97,38.82
-0.11,-0.21,1.03,14.05,21.97,38.82
-0.06,-0.21,1.02,11.59,20.0,36.22
-0.03,-0.18,1.05,10.32,18.89,33.73
-0.04,-0.12,1.07,8.74,18.08,31.92
-0.04,-0.09,1.07,6.07,17.38,30.36
-0.04,-0.09,1.07,2.44,17.05,28.88
-0.05,-0.1,1.07,2.44,17.05,28.88
-0.03,-0.15,1.06,-1.92,16.72,27.42
-0.0,-0.19,1.05,-6.39,16.59,26.2
0.0,-0.23,1.06,-10.26,16.99,25.56
0.0,-0.26,1.07,-13.05,17.85,25.17
0.0,-0.26,1.07,-14.52,19.15,24.77
-0.01,-0.28,1.07,-14.52,19.15,24.77
-0.04,-0.28,1.07,-14.88,20.58,24.3
-0.07,-0.28,1.06,-14.53,21.59,23.78
-0.08,-0.28,1.04,-13.68,21.8,23.07
-0.08,-0.28,1.03,-12.33,21.3,22.08
-0.08,-0.28,1.03,-12.33,21.3,22.08
-0.07,-0.27,1.02,-10.41,20.3,20.83
-0.07,-0.26,1.02,-8.07,19.03,19.35
-0.08,-0.23,1.04,-5.58,17.61,17.68
-0.09,-0.2,1.05,-3.17,16.4,15.8
-0.09,-0.16,1.06,-1.05,15.49,13.73
-0.09,-0.16,1.06,-1.05,15.49,13.73
-0.07,-0.13,1.07,0.4,14.73,11.64
-0.06,-0.1,1.08,0.8,13.96,9.97
-0.06,-0.08,1.08,-0.01,13.04,8.79
-0.06,-0.07,1.06,-1.99,12.01,7.87
-0.07,-0.08,1.05,-4.78,10.85,6.91
-0.07,-0.08,1.05,-4.78,10.85,6.91
-0.07,-0.1,1.02,-8.02,9.59,5.83
-0.07,-0.13,1.0,-11.28,8.34,4.68
-0.05,-0.16,1.0,-14.03,7.07,3.5
-0.03,-0.2,1.01,-16.02,6.1,2.38
-0.02,-0.23,1.03,-17.36,5.6,1.6
-0.02,-0.23,1.03,-17.36,5.6,1.6
-0.03,-0.24,1.02,-18.22,5.29,1.16
-0.04,-0.26,1.01,-18.57,5.12,0.61
-0.05,-0.28,1.0,-18.14,4.94,-0.39
-0.04,-0.29,0.99,-16.8,4.71,-1.91
-0.02,-0.27,1.0,-14.64,4.39,-3.77
-0.02,-0.27,1.0,-14.64,4.39,-3.77
-0.01,-0.24,1.02,-12.05,4.0,-5.72
-0.01,-0.2,1.04,-9.6,3.57,-7.69
-0.03,-0.16,1.04,-7.83,3.12,-9.73
-0.04,-0.14,1.04,-6.97,2.56,-11.94
-0.03,-0.12,1.04,-7.08,1.78,-14.29
-0.03,-0.12,1.04,-7.08,1.78,-14.29
-0.0,-0.11,1.04,-7.93,0.74,-16.75
0.03,-0.11,1.04,-9.37,-0.53,-19.17
0.03,-0.11,1.04,-11.12,-1.71,-21.46
0.04,-0.13,1.03,-12.7,-2.7,-23.53
0.05,-0.14,1.03,-13.91,-3.69,-25.38
0.05,-0.14,1.03,-13.91,-3.69,-25.38
0.06,-0.14,1.02,-14.69,-4.53,-27.07
0.07,-0.15,1.02,-14.88,-5.17,-28.53
0.07,-0.15,1.02,-14.48,-5.6,-29.73
0.06,-0.14,1.02,-13.48,-5.8,-30.71
0.05,-0.13,1.02,-12.05,-5.89,-31.57
0.05,-0.13,1.02,-12.05,-5.89,-31.57
0.04,-0.11,1.03,-10.48,-5.97,-32.38
0.03,-0.1,1.03,-9.09,-6.18,-33.23
0.01,-0.1,1.02,-7.86,-6.53,-34.33
0.0,-0.1,1.02,-6.71,-6.99,-35.86
0.0,-0.09,1.02,-5.55,-7.5,-37.78
0.0,-0.09,1.02,-5.55,-7.5,-37.78
0.01,-0.07,1.01,-4.24,-7.97,-39.91
0.03,-0.05,1.02,-2.87,-8.35,-42.03
0.04,-0.02,1.02,-1.65,-8.66,-43.94
0.05,0.01,1.02,-0.83,-8.96,-45.48
0.05,0.02,1.01,-0.49,-9.31,-46.66
0.05,0.02,1.01,-0.49,-9.31,-46.66
0.06,0.03,1.01,-0.55,-9.66,-47.48
0.07,0.02,0.99,-0.85,-10.04,-47.9
0.08,0.02,0.97,-1.19,-10.43,-47.92
0.1,0.01,0.97,-1.36,-10.77,-47.48
0.1,0.02,0.97,-1.32,-10.97,-46.69
0.1,0.02,0.97,-1.32,-10.97,-46.69
0.1,0.02,0.97,-1.07,-10.97,-45.74
0.09,0.01,0.95,-0.7,-10.88,-44.73
0.08,0.0,0.94,-0.43,-10.97,-43.68
0.08,0.01,0.94,0.06,-11.14,-42.65
0.11,0.01,0.94,1.02,-11.23,-42.02
0.11,0.01,0.94,1.02,-11.23,-42.02
0.11,0.02,0.95,2.3,-11.1,-41.62
0.1,0.03,0.96,3.4,-10.87,-41.23
0.09,0.04,0.96,4.16,-10.65,-40.88
