ax,ay,az,gx,gy,gz
0.02,0.01,0.98,-2.73,0.84,0.2
0.02,0.03,0.98,-1.61,0.9,-0.0
0.02,0.03,0.98,-1.61,0.9,-0.0
0.02,0.04,0.99,-0.43,0.94,-0.16
0.02,0.05,1.0,0.6,1.03,-0.25
0.01,0.07,1.0,1.35,1.08,-0.31
0.01,0.08,1.01,1.79,1.16,-0.35
0.01,0.09,1.0,1.92,1.22,-0.4
0.01,0.09,1.0,1.92,1.22,-0.4
0.01,0.09,1.01,1.66,1.24,-0.42
0.01,0.08,1.0,1.05,1.12,-0.41
0.0,0.07,1.0,0.25,0.93,-0.33
0.01,0.06,0.99,-0.63,0.67,-0.24
0.0,0.05,0.98,-1.36,0.34,-0.18
0.0,0.05,0.98,-1.36,0.34,-0.18
0.01,0.04,0.98,-1.86,-0.06,-0.14
0.01,0.04,0.98,-2.06,-0.44,-0.15
0.02,0.03,0.98,-2.0,-0.71,-0.19
0.02,0.03,0.97,-1.74,-0.84,-0.24
0.02,0.03,0.98,-1.27,-0.83,-0.3
0.02,0.03,0.98,-1.27,-0.83,-0.3
0.02,0.04,0.98,-0.6,-0.68,-0.38
0.02,0.04,0.98,0.21,-0.39,-0.51
0.02,0.05,0.98,1.07,-0.05,-0.6
0.02,0.06,0.98,1.86,0.26,-0.59
0.02,0.06,0.98,2.49,0.55,-0.48
0.02,0.06,0.98,2.49,0.55,-0.48
0.02,0.06,0.98,3.01,0.84,-0.28
0.03,0.05,0.97,3.55,1.2,-0.02
0.03,0.04,0.97,4.19,1.64,0.24
0.03,0.04,0.96,5.01,2.17,0.46
0.03,0.04,0.97,5.94,2.79,0.61
0.03,0.04,0.97,5.94,2.79,0.61
0.03,0.03,0.96,7.0,3.45,0.72
0.03,0.03,0.96,8.21,4.22,0.81
0.02,0.03,0.96,9.62,5.08,0.89
0.02,0.03,0.96,11.24,5.98,1.05
0.02,0.03,0.96,12.98,6.84,1.27
0.02,0.03,0.96,12.98,6.84,1.27
0.02,0.02,0.95,14.86,7.75,1.47
0.03,0.02,0.95,16.98,8.72,1.69
0.03,0.02,0.94,19.36,9.79,2.0
0.03,0.02,0.94,22.03,11.06,2.37
0.04,0.02,0.94,24.96,12.52,2.78
0.04,0.02,0.94,24.96,12.52,2.78
0.04,0.02,0.94,28.12,14.18,3.26
0.02,0.03,0.94,31.49,15.95,3.87
-0.02,0.07,0.95,34.97,17.64,4.49
-0.05,0.1,0.96,38.22,18.96,4.88
-0.09,0.17,1.0,40.68,19.53,5.13
-0.09,0.17,1.0,40.68,19.53,5.13
-0.14,0.25,1.03,41.87,18.97,5.26
-0.19,0.33,1.06,41.31,17.28,4.97
-0.21,0.39,1.11,38.58,14.35,4.33
-0.21,0.44,1.19,32.64,9.98,3.63
-0.21,0.49,1.21,22.13,4.26,2.93
-0.21,0.49,1.21,22.13,4.26,2.93
-0.19,0.49,1.19,6.63,-2.73,1.86
-0.13,0.41,1.14,-13.3,-10.91,0.16
-0.06,0.26,1.09,-36.07,-19.34,-1.92
0.02,0.1,1.07,-59.14,-26.68,-3.88
0.1,-0.06,1.06,-80.37,-32.03,-5.44
0.1,-0.06,1.06,-80.37,-32.03,-5.44
0.15,-0.19,0.97,-97.59,-34.27,-6.54
0.16,-0.3,0.86,-109.44,-33.43,-7.49
0.17,-0.41,0.84,-116.2,-31.23,-7.97
0.17,-0.49,0.84,-118.16,-27.82,-7.71
0.17,-0.56,0.79,-115.34,-22.95,-7.26
0.17,-0.56,0.79,-115.34,-22.95,-7.26
0.18,-0.63,0.76,-107.6,-17.02,-7.09
0.21,-0.68,0.75,-95.05,-10.26,-7.1
0.21,-0.69,0.76,-78.11,-2.79,-6.93
0.17,-0.65,0.76,-57.52,5.21,-6.4
0.09,-0.55,0.78,-34.19,13.18,-5.72
0.09,-0.55,0.78,-34.19,13.18,-5.72
0.0,-0.42,0.82,-9.47,20.1,-5.28
-0.1,-0.26,0.88,14.99,24.86,-5.2
-0.21,-0.09,0.94,37.6,27.02,-5.81
-0.28,0.07,1.05,57.38,26.1,-7.55
-0.29,0.25,1.29,72.89,22.29,-10.33
-0.29,0.25,1.29,72.89,22.29,-10.33
-0.24,0.44,1.56,81.14,16.67,-13.77
-0.18,0.58,1.53,79.0,9.84,-17.06
-0.17,0.63,1.38,66.48,1.18,-19.48
-0.16,0.58,1.31,46.16,-9.21,-21.39
-0.1,0.44,1.24,20.31,-20.19,-23.34
-0.1,0.44,1.24,20.31,-20.19,-23.34
-0.0,0.26,1.15,-8.19,-30.67,-25.01
0.14,0.05,1.12,-36.46,-39.64,-26.28
0.3,-0.19,1.07,-61.64,-44.71,-27.45
0.39,-0.39,0.9,-80.37,-43.92,-28.83
0.42,-0.58,0.79,-92.34,-39.19,-30.18
0.42,-0.58,0.79,-92.34,-39.19,-30.18
0.42,-0.71,0.73,-97.72,-31.77,-31.0
0.41,-0.8,0.61,-95.42,-21.85,-31.35
0.38,-0.88,0.5,-84.33,-10.18,-31.24
0.31,-0.88,0.43,-64.85,2.43,-30.36
0.17,-0.74,0.45,-38.51,14.5,-28.65
0.17,-0.74,0.45,-38.51,14.5,-28.65
0.0,-0.46,0.56,-7.76,24.48,-26.51
-0.15,-0.15,0.71,22.94,31.19,-25.13
-0.2,0.08,0.88,50.03,34.36,-25.29
-0.28,0.34,0.98,72.23,35.18,-25.32
-0.33,0.52,1.12,88.38,33.37,-26.67
-0.33,0.52,1.12,88.38,33.37,-26.67
-0.3,0.66,1.38,97.47,29.46,-29.94
-0.19,0.72,1.47,97.89,25.01,-34.35
-0.1,0.72,1.39,88.3,19.55,-38.18
-0.05,0.65,1.26,69.83,12.84,-40.6
-0.03,0.51,1.2,45.23,5.58,-41.89
-0.03,0.51,1.2,45.23,5.58,-41.89
0.01,0.34,1.17,17.37,-1.48,-42.5
0.07,0.15,1.14,-10.61,-7.62,-42.66
0.14,-0.06,1.12,-35.86,-12.33,-42.5
0.26,-0.29,1.1,-56.1,-14.45,-42.17
0.31,-0.48,0.96,-68.56,-12.52,-41.67
0.31,-0.48,0.96,-68.56,-12.52,-41.67
0.27,-0.6,0.87,-73.36,-8.88,-40.88
0.21,-0.65,0.88,-71.78,-5.48,-39.44
0.15,-0.62,0.88,-64.51,-2.09,-37.69
0.07,-0.53,0.88,-52.71,1.4,-36.4
-0.02,-0.37,0.93,-38.24,3.67,-35.79
-0.02,-0.37,0.93,-38.24,3.67,-35.79
-0.09,-0.19,1.02,-23.33,3.88,-35.88
-0.13,-0.01,1.11,-10.35,2.03,-36.78
-0.14,0.11,1.18,-1.23,-2.02,-38.72
-0.05,0.14,1.17,3.65,-7.52,-41.1
-0.06,0.22,1.16,5.33,-13.41,-41.21
-0.06,0.22,1.16,5.33,-13.41,-41.21
-0.02,0.23,1.21,3.37,-19.54,-41.68
0.09,0.17,1.22,-2.34,-25.54,-43.28
0.2,0.08,1.16,-11.24,-30.29,-44.87
0.24,-0.05,1.05,-21.79,-33.11,-45.98
0.29,-0.22,0.96,-31.52,-33.49,-47.35
0.29,-0.22,0.96,-31.52,-33.49,-47.35
0.33,-0.38,0.86,-38.24,-31.28,-48.72
0.36,-0.5,0.79,-40.77,-26.81,-49.64
0.38,-0.59,0.73,-38.59,-20.37,-50.31
0.4,-0.66,0.67,-31.3,-12.08,-50.99
0.4,-0.7,0.62,-18.87,-2.12,-51.42
0.4,-0.7,0.62,-18.87,-2.12,-51.42
0.38,-0.7,0.56,-1.54,9.01,-51.22
0.3,-0.65,0.53,20.41,20.66,-50.13
0.12,-0.47,0.57,46.04,31.68,-47.91
-0.12,-0.11,0.66,73.27,39.54,-44.3
-0.37,0.3,0.85,98.47,42.87,-40.51
-0.37,0.3,0.85,98.47,42.87,-40.51
-0.49,0.65,1.18,118.52,41.78,-38.9
-0.5,0.93,1.5,131.58,39.03,-39.35
-0.5,1.13,1.66,134.75,34.92,-40.27
-0.53,1.23,1.58,124.76,26.52,-41.6
-0.56,1.25,1.41,102.58,13.32,-43.37
-0.56,1.25,1.41,102.58,13.32,-43.37
-0.48,1.17,1.29,71.18,-4.25,-46.36
-0.24,0.99,1.23,33.06,-24.33,-49.96
-0.02,0.79,1.2,-8.89,-43.06,-51.51
0.1,0.57,1.12,-51.89,-58.52,-50.17
0.17,0.32,1.02,-92.57,-70.84,-47.73
0.17,0.32,1.02,-92.57,-70.84,-47.73
0.28,0.02,0.97,-127.67,-80.25,-45.81
0.49,-0.37,1.04,-154.06,-85.15,-44.27
0.64,-0.64,0.86,-167.16,-80.93,-42.5
0.65,-0.84,0.56,-167.0,-69.68,-40.96
0.57,-0.97,0.4,-155.3,-56.45,-39.34
0.57,-0.97,0.4,-155.3,-56.45,-39.34
0.45,-0.99,0.4,-132.44,-43.48,-37.13
0.34,-0.82,0.51,-100.17,-31.08,-34.13
0.31,-0.54,0.66,-64.0,-19.18,-31.2
0.33,-0.23,0.84,-29.7,-8.52,-28.52
0.26,0.05,0.99,-1.74,0.61,-25.51
0.26,0.05,0.99,-1.74,0.61,-25.51
0.08,0.25,1.02,18.03,6.95,-23.42
-0.04,0.24,0.88,32.23,9.69,-24.57
-0.1,0.2,0.76,46.04,9.56,-27.12
-0.12,0.24,0.91,59.5,6.17,-29.71
-0.03,0.37,1.43,69.32,0.01,-32.46
-0.03,0.37,1.43,69.32,0.01,-32.46
0.13,0.53,1.7,69.11,-7.65,-35.15
0.27,0.54,1.29,54.71,-17.35,-36.61
0.29,0.43,0.95,31.33,-26.78,-36.59
0.29,0.23,0.93,3.98,-34.13,-37.16
0.34,-0.04,1.01,-24.76,-39.4,-39.2
0.34,-0.04,1.01,-24.76,-39.4,-39.2
0.47,-0.34,1.01,-49.43,-42.31,-41.31
0.55,-0.54,0.76,-64.4,-39.67,-42.97
0.56,-0.68,0.56,-70.04,-32.21,-44.95
0.51,-0.8,0.5,-67.53,-22.59,-47.04
0.36,-0.82,0.52,-56.57,-12.08,-48.65
0.36,-0.82,0.52,-56.57,-12.08,-48.65
0.15,-0.68,0.54,-36.83,-1.75,-49.26
-0.07,-0.4,0.57,-10.39,7.53,-49.03
-0.22,-0.06,0.7,19.15,13.25,-48.55
-0.29,0.27,1.0,48.14,15.16,-47.9
-0.2,0.65,1.43,73.17,15.7,-47.47
-0.2,0.65,1.43,73.17,15.7,-47.47
-0.08,1.02,1.68,87.73,16.24,-46.29
-0.08,1.17,1.44,84.73,13.72,-41.28
-0.26,1.22,1.21,69.33,7.5,-33.36
-0.15,0.89,1.21,47.5,-1.82,-30.48
-0.05,0.62,1.25,22.87,-12.01,-27.47
-0.05,0.62,1.25,22.87,-12.01,-27.47
0.09,0.37,1.17,-2.75,-21.37,-23.64
0.17,0.2,1.08,-26.59,-29.34,-18.96
0.22,0.04,1.06,-46.82,-36.01,-15.55
0.36,-0.19,1.04,-62.7,-40.7,-13.71
0.47,-0.41,0.86,-71.46,-39.97,-12.99
0.47,-0.41,0.86,-71.46,-39.97,-12.99
0.47,-0.63,0.6,-70.14,-34.09,-13.5
0.34,-0.74,0.51,-57.68,-27.26,-14.12
0.16,-0.63,0.6,-36.03,-22.12,-13.92
0.08,-0.36,0.66,-9.45,-19.31,-13.59
0.08,-0.02,0.74,19.66,-18.01,-13.05
0.08,-0.02,0.74,19.66,-18.01,-13.05
0.14,0.28,0.94,48.42,-17.35,-12.11
0.2,0.49,1.14,73.82,-15.06,-10.67
0.21,0.64,1.2,92.48,-11.26,-8.95
0.34,0.67,1.25,102.01,-8.04,-8.6
0.37,0.66,1.19,101.8,-4.92,-5.25
0.37,0.66,1.19,101.8,-4.92,-5.25
0.26,0.7,1.11,93.33,-2.33,2.14
0.16,0.65,1.02,76.88,-1.86,7.35
0.14,0.46,0.96,54.51,-4.67,8.09
0.16,0.26,0.92,29.7,-9.32,6.38
0.22,0.09,0.88,5.58,-14.01,3.69
0.22,0.09,0.88,5.58,-14.01,3.69
0.28,-0.07,0.85,-15.06,-17.46,0.39
0.35,-0.22,0.8,-29.91,-18.22,-3.2
0.39,-0.34,0.7,-37.2,-15.24,-6.64
0.42,-0.41,0.58,-35.2,-8.73,-9.4
0.32,-0.32,0.43,-21.48,1.04,-10.49
0.32,-0.32,0.43,-21.48,1.04,-10.49
0.16,-0.1,0.56,1.53,11.02,-9.25
0.02,0.18,0.75,28.25,18.9,-5.55
-0.07,0.47,0.94,54.18,25.15,-0.18
-0.12,0.71,1.1,75.78,30.32,5.29
-0.12,0.89,1.21,90.04,33.71,10.25
-0.12,0.89,1.21,90.04,33.71,10.25
-0.15,1.0,1.28,94.68,34.11,15.32
-0.24,1.11,1.3,88.3,30.16,20.71
-0.28,1.14,1.18,70.63,21.19,25.06
-0.2,1.05,0.97,44.04,9.38,26.53
-0.08,0.84,0.95,12.95,-2.25,25.05
-0.08,0.84,0.95,12.95,-2.25,25.05
0.03,0.59,1.03,-19.52,-12.58,22.5
0.1,0.36,1.05,-50.84,-21.32,20.63
0.16,0.18,0.99,-78.07,-28.36,20.1
0.23,0.02,0.94,-99.7,-33.12,20.42
0.27,-0.14,0.94,-115.53,-35.31,20.95
0.27,-0.14,0.94,-115.53,-35.31,20.95
0.35,-0.36,0.94,-124.44,-34.44,21.11
0.4,-0.53,0.69,-121.12,-26.85,20.67
0.24,-0.57,0.44,-102.8,-13.11,19.57
0.13,-0.48,0.47,-73.49,-0.69,18.36
-0.05,-0.07,0.76,-39.82,7.16,20.91
-0.05,-0.07,0.76,-39.82,7.16,20.91
-0.13,0.25,0.95,-8.6,11.17,27.02
-0.15,0.51,1.0,19.14,14.39,35.84
-0.25,0.72,1.05,42.31,16.7,43.74
-0.24,0.81,1.2,58.26,15.73,44.57
-0.09,0.84,1.29,64.9,12.07,40.79
-0.09,0.84,1.29,64.9,12.07,40.79
-0.0,0.9,1.34,60.2,5.81,38.93
0.06,0.86,1.21,42.25,-4.36,39.83
0.09,0.75,1.03,13.49,-16.29,42.43
0.12,0.57,0.95,-21.73,-27.58,43.17
0.15,0.33,0.93,-59.38,-37.24,41.46
0.15,0.33,0.93,-59.38,-37.24,41.46
0.18,0.08,0.88,-96.01,-45.46,38.92
0.22,-0.14,0.85,-128.78,-52.85,36.73
0.28,-0.36,0.78,-156.75,-58.15,34.58
0.44,-0.68,0.71,-177.76,-59.25,31.68
0.56,-0.95,0.43,-183.04,-50.77,27.39
0.56,-0.95,0.43,-183.04,-50.77,27.39
0.51,-1.15,0.24,-168.54,-33.05,20.97
0.51,-1.33,0.1,-139.46,-13.49,13.72
0.46,-1.38,0.13,-100.64,3.8,8.46
0.34,-1.12,0.27,-54.25,16.93,8.41
0.18,-0.73,0.44,-3.43,27.58,12.56
0.18,-0.73,0.44,-3.43,27.58,12.56
0.05,-0.39,0.63,47.11,36.88,16.81
-0.04,-0.07,0.8,93.19,43.67,19.98
-0.08,0.27,0.92,131.34,47.66,23.06
-0.08,0.61,1.05,161.36,49.98,27.07
-0.08,0.61,1.05,184.27,53.06,31.9
-0.08,0.88,1.2,184.27,53.06,31.9
-0.07,1.02,1.38,198.92,57.08,34.82
-0.08,1.04,1.62,202.71,59.96,34.77
-0.19,1.08,1.77,191.2,57.59,33.61
-0.24,1.03,1.34,160.92,47.57,31.44
-0.24,1.03,1.34,118.07,34.24,27.56
-0.19,0.88,0.93,118.07,34.24,27.56
-0.14,0.65,0.89,70.06,21.64,23.06
-0.12,0.39,0.98,19.79,9.04,19.57
-0.06,0.11,1.02,-29.17,-5.63,16.66
0.06,-0.14,1.05,-71.88,-21.63,14.37
0.06,-0.14,1.05,-71.88,-21.63,14.37
0.2,-0.36,1.01,-106.75,-34.3,12.31
0.36,-0.63,0.93,-132.14,-40.48,10.14
0.51,-0.87,0.58,-140.64,-37.19,8.21
0.5,-1.03,0.22,-128.35,-25.2,7.03
0.37,-1.1,0.11,-99.33,-11.18,7.68
0.37,-1.1,0.11,-99.33,-11.18,7.68
0.14,-0.86,0.34,-58.8,-1.42,12.09
-0.04,-0.4,0.66,-13.2,4.15,19.9
-0.13,0.04,0.92,30.66,8.69,27.47
-0.12,0.4,1.14,68.67,14.06,32.16
-0.0,0.6,1.29,97.75,21.28,34.02
-0.0,0.6,1.29,97.75,21.28,34.02
0.0,0.77,1.35,114.22,27.99,37.4
-0.06,0.84,1.33,116.38,30.28,41.5
-0.13,0.8,1.28,106.9,28.08,43.27
-0.12,0.65,1.18,90.02,24.03,42.05
-0.11,0.46,1.06,68.12,19.12,39.76
-0.11,0.46,1.06,68.12,19.12,39.76
-0.08,0.28,0.99,43.68,12.94,37.17
-0.04,0.15,0.96,18.78,6.18,34.74
0.02,0.07,0.94,-4.63,-0.33,32.68
0.08,-0.02,0.93,-25.12,-5.29,30.91
0.11,-0.12,0.93,-41.54,-8.18,29.27
0.11,-0.12,0.93,-41.54,-8.18,29.27
0.13,-0.22,0.89,-52.66,-8.78,27.51
0.2,-0.35,0.8,-56.97,-6.25,26.0
0.22,-0.43,0.61,-51.2,0.63,26.5
0.14,-0.41,0.48,-35.15,9.73,29.56
-0.02,-0.23,0.59,-11.7,16.77,35.03
-0.02,-0.23,0.59,-11.7,16.77,35.03
-0.15,0.02,0.86,14.95,20.87,41.58
-0.19,0.28,1.07,40.87,23.91,48.09
-0.19,0.5,1.2,63.2,27.32,54.79
-0.2,0.64,1.3,79.09,29.77,62.09
-0.25,0.71,1.43,85.99,29.27,69.18
-0.25,0.71,1.43,85.99,29.27,69.18
-0.32,0.75,1.48,81.73,24.81,74.31
-0.34,0.7,1.31,65.21,15.78,75.76
-0.26,0.48,1.11,39.45,2.64,73.36
-0.16,0.22,1.09,10.34,-12.33,69.59
-0.04,-0.01,1.11,-17.97,-26.39,66.01
-0.04,-0.01,1.11,-17.97,-26.39,66.01
0.09,-0.19,1.06,-42.94,-37.49,62.51
0.22,-0.37,1.0,-62.53,-44.5,59.36
0.34,-0.51,0.84,-73.88,-45.77,57.43
0.35,-0.62,0.55,-72.66,-39.91,56.62
0.29,-0.73,0.41,-59.59,-30.72,56.44
0.29,-0.73,0.41,-59.59,-30.72,56.44
0.18,-0.73,0.51,-37.36,-22.08,57.73
0.08,-0.56,0.68,-9.17,-13.84,60.13
0.02,-0.34,0.81,21.04,-5.15,62.07
-0.0,-0.13,0.94,49.24,2.95,63.16
-0.03,0.04,1.04,72.85,9.33,64.23
-0.03,0.04,1.04,72.85,9.33,64.23
-0.07,0.2,1.1,90.89,13.82,66.11
-0.09,0.3,1.11,103.5,16.44,68.92
-0.13,0.42,1.13,111.57,17.24,73.69
-0.18,0.53,1.15,115.08,16.06,78.52
-0.17,0.59,1.14,114.26,13.32,81.98
-0.17,0.59,1.14,114.26,13.32,81.98
-0.12,0.62,1.2,109.48,9.55,84.73
-0.07,0.62,1.29,99.53,5.0,87.6
-0.07,0.63,1.29,82.21,-0.68,90.71
-0.1,0.58,1.13,56.58,-8.4,93.03
-0.07,0.44,0.95,24.06,-18.22,93.11
-0.07,0.44,0.95,24.06,-18.22,93.11
0.01,0.22,0.87,-12.41,-28.01,90.92
0.05,-0.02,0.92,-49.01,-36.05,87.83
0.08,-0.25,1.04,-81.82,-42.34,85.06
0.13,-0.45,1.07,-108.68,-45.65,82.68
0.27,-0.69,0.94,-127.95,-43.64,80.02
0.27,-0.69,0.94,-127.95,-43.64,80.02
0.34,-0.9,0.56,-132.83,-33.77,77.02
0.29,-1.04,0.29,-121.05,-19.1,73.96
0.15,-1.08,0.26,-95.82,-4.88,71.9
-0.03,-0.86,0.4,-61.93,4.89,72.18
-0.19,-0.42,0.58,-24.92,9.2,74.98
-0.19,-0.42,0.58,-24.92,9.2,74.98
-0.28,-0.03,0.76,9.46,9.13,77.87
-0.32,0.26,0.89,38.06,5.27,79.38
-0.27,0.47,1.03,60.09,-0.81,78.02
-0.09,0.51,1.18,76.26,-6.05,72.68
0.1,0.49,1.33,85.66,-8.89,65.65
0.1,0.49,1.33,85.66,-8.89,65.65
0.21,0.5,1.46,84.83,-10.32,59.91
0.24,0.46,1.42,71.31,-12.94,56.72
0.19,0.37,1.25,47.61,-17.44,56.34
0.11,0.21,1.12,19.03,-21.93,58.1
0.03,0.0,1.05,-9.83,-25.49,60.48
0.03,0.0,1.05,-9.83,-25.49,60.48
-0.01,-0.2,0.99,-36.43,-27.62,61.81
-0.01,-0.36,0.95,-59.39,-28.58,60.95
0.07,-0.54,0.82,-76.84,-27.32,57.42
0.12,-0.65,0.54,-84.64,-22.08,51.82
0.12,-0.77,0.32,-81.15,-14.67,44.62
0.12,-0.77,0.32,-81.15,-14.67,44.62
0.13,-0.84,0.23,-66.73,-7.88,37.55
0.12,-0.72,0.26,-42.98,-2.71,33.0
0.07,-0.44,0.39,-12.8,1.26,31.99
0.03,-0.14,0.57,19.54,4.41,33.32
0.01,0.17,0.76,49.78,6.82,36.0
0.01,0.17,0.76,49.78,6.82,36.0
0.02,0.46,0.97,75.1,9.87,39.47
0.04,0.69,1.16,93.18,14.38,43.36
0.02,0.72,1.29,101.4,18.5,46.91
0.03,0.72,1.38,98.78,20.74,48.38
0.03,0.63,1.28,82.57,19.53,49.39
0.03,0.63,1.28,82.57,19.53,49.39
0.02,0.48,1.08,56.31,14.48,52.53
0.0,0.32,0.98,25.27,8.48,57.91
0.04,0.12,1.0,-7.54,2.16,63.1
0.14,-0.05,1.03,-40.72,-4.56,66.71
0.21,-0.17,1.06,-73.58,-10.75,68.72
0.21,-0.17,1.06,-73.58,-10.75,68.72
0.34,-0.42,1.17,-104.83,-15.11,68.22
0.52,-0.7,0.9,-128.17,-12.62,65.78
0.55,-0.99,0.53,-137.69,-2.65,62.66
0.47,-1.25,0.31,-133.51,10.48,60.22
0.31,-1.41,0.28,-116.66,23.66,58.87
0.31,-1.41,0.28,-116.66,23.66,58.87
0.13,-1.41,0.35,-88.36,35.18,57.98
-0.01,-1.19,0.45,-51.44,44.21,57.2
-0.12,-0.81,0.57,-10.47,50.19,56.57
-0.21,-0.45,0.68,30.34,52.75,55.4
-0.25,-0.15,0.83,68.69,52.28,53.28
-0.25,-0.15,0.83,68.69,52.28,53.28
-0.26,0.1,0.99,102.72,50.41,49.99
-0.21,0.33,1.21,130.42,48.08,45.2
-0.1,0.57,1.47,150.53,47.69,39.53
-0.03,0.8,1.72,159.81,48.88,34.48
-0.07,0.97,1.72,152.72,46.25,31.92
-0.07,0.97,1.72,152.72,46.25,31.92
-0.12,0.99,1.32,127.64,38.35,31.52
-0.14,0.81,1.06,90.96,29.57,30.74
-0.1,0.48,1.09,47.79,21.33,28.21
-0.05,0.16,1.15,1.34,12.84,25.7
-0.03,-0.09,1.16,-43.65,3.8,25.16
-0.03,-0.09,1.16,-43.65,3.8,25.16
0.01,-0.27,1.14,-83.03,-4.6,26.23
0.06,-0.43,1.01,-115.23,-9.79,27.06
0.12,-0.6,0.76,-137.4,-10.49,26.56
0.11,-0.79,0.5,-146.3,-7.05,24.64
0.08,-0.96,0.44,-143.19,-2.9,22.28
0.08,-0.96,0.44,-143.19,-2.9,22.28
0.08,-1.07,0.48,-130.86,0.23,20.65
0.11,-1.08,0.51,-111.48,3.31,19.63
0.16,-1.0,0.52,-86.22,7.37,18.39
0.23,-0.85,0.53,-56.3,12.42,16.89
0.22,-0.65,0.61,-23.82,18.17,16.04
0.22,-0.65,0.61,-23.82,18.17,16.04
0.13,-0.37,0.75,8.03,23.64,16.46
0.02,-0.07,0.89,35.93,28.25,17.77
-0.1,0.17,1.0,58.18,32.15,19.16
-0.29,0.38,1.08,74.7,34.61,18.05
-0.31,0.36,1.21,86.05,35.74,10.15
-0.31,0.36,1.21,86.05,35.74,10.15
-0.25,0.35,1.36,92.93,38.71,-0.12
-0.21,0.43,1.54,91.84,41.15,-7.28
-0.21,0.52,1.39,77.14,39.19,-10.45
-0.15,0.43,1.08,49.68,33.53,-12.5
-0.06,0.17,1.04,15.61,25.44,-15.56
-0.06,0.17,1.04,15.61,25.44,-15.56
0.05,-0.13,1.17,-18.71,15.43,-18.08
0.23,-0.4,1.17,-49.12,6.98,-18.81
0.39,-0.6,0.91,-72.5,3.54,-17.98
0.39,-0.72,0.64,-85.89,3.57,-16.34
0.3,-0.81,0.61,-89.68,4.25,-14.15
0.3,-0.81,0.61,-89.68,4.25,-14.15
0.17,-0.82,0.75,-85.43,5.4,-11.77
0.12,-0.79,0.83,-75.93,7.22,-10.34
0.17,-0.76,0.83,-63.86,9.38,-10.54
0.22,-0.74,0.79,-49.96,11.87,-11.49
0.17,-0.66,0.78,-33.78,14.64,-12.02
0.17,-0.66,0.78,-33.78,14.64,-12.02
0.04,-0.5,0.82,-15.96,16.99,-12.31
-0.05,-0.31,0.92,1.22,18.04,-13.71
-0.06,-0.12,1.07,15.18,17.7,-17.21
-0.07,0.06,1.18,24.15,16.63,-22.34
-0.09,0.2,1.23,27.42,14.85,-28.74
-0.09,0.2,1.23,27.42,14.85,-28.74
-0.08,0.29,1.27,25.48,12.07,-36.31
-0.0,0.35,1.31,18.91,8.5,-44.35
0.12,0.37,1.31,7.87,4.22,-51.98
0.26,0.31,1.28,-7.41,-0.43,-58.14
0.34,0.17,1.22,-26.15,-4.47,-61.53
0.34,0.17,1.22,-26.15,-4.47,-61.53
0.4,-0.04,1.17,-46.79,-7.03,-62.07
0.46,-0.3,1.11,-66.15,-6.97,-60.86
0.5,-0.54,0.99,-80.14,-3.53,-58.87
0.52,-0.74,0.89,-87.49,2.09,-56.21
0.5,-0.85,0.8,-87.79,8.92,-52.05
0.5,-0.85,0.8,-87.79,8.92,-52.05
0.44,-0.88,0.74,-80.46,16.61,-46.33
0.32,-0.82,0.76,-65.92,24.5,-40.13
0.14,-0.68,0.81,-46.88,31.43,-35.29
-0.03,-0.49,0.87,-25.84,36.56,-34.16
-0.12,-0.28,0.96,-4.79,39.02,-36.65
-0.12,-0.28,0.96,-4.79,39.02,-36.65
-0.14,-0.08,1.09,14.07,38.72,-41.55
-0.06,0.04,1.18,28.73,36.5,-48.46
0.07,0.15,1.28,38.11,33.28,-55.17
0.19,0.25,1.36,41.22,29.84,-59.37
0.24,0.29,1.32,37.63,26.45,-60.91
0.24,0.29,1.32,37.63,26.45,-60.91
