ax,ay,az,gx,gy,gz
-0.07,-0.71,0.7,-5.57,-1.36,0.78
-0.07,-0.71,0.71,-4.57,-1.71,0.04
-0.06,-0.7,0.71,-3.41,-2.28,-0.75
-0.06,-0.69,0.71,-2.19,-2.98,-1.5
-0.06,-0.69,0.71,-2.19,-2.98,-1.5
-0.05,-0.68,0.71,-1.05,-3.73,-2.18
-0.05,-0.67,0.7,-0.07,-4.37,-2.9
-0.04,-0.68,0.7,0.8,-4.76,-3.63
-0.03,-0.68,0.69,1.69,-4.85,-4.25
-0.02,-0.68,0.69,2.63,-4.56,-4.66
-0.02,-0.68,0.69,2.63,-4.56,-4.66
-0.02,-0.68,0.69,3.66,-3.99,-4.86
-0.03,-0.67,0.68,4.82,-3.24,-4.85
-0.05,-0.67,0.68,6.12,-2.51,-4.76
-0.06,-0.65,0.68,7.56,-1.99,-4.53
-0.06,-0.64,0.68,9.0,-1.89,-4.23
-0.06,-0.64,0.68,9.0,-1.89,-4.23
-0.06,-0.62,0.69,10.29,-2.18,-3.79
-0.06,-0.61,0.69,11.31,-2.85,-3.28
-0.05,-0.59,0.7,12.01,-3.68,-2.81
-0.03,-0.58,0.7,12.35,-4.51,-2.35
-0.02,-0.57,0.7,12.27,-5.23,-1.83
-0.02,-0.57,0.7,12.27,-5.23,-1.83
-0.01,-0.57,0.71,11.72,-5.69,-1.12
-0.0,-0.57,0.71,10.67,-5.83,-0.25
-0.0,-0.59,0.71,9.15,-5.69,0.61
0.0,-0.61,0.7,7.43,-5.35,1.4
0.0,-0.64,0.69,5.82,-4.79,2.12
0.0,-0.64,0.69,5.82,-4.79,2.12
0.0,-0.65,0.69,4.6,-4.04,2.81
0.01,-0.66,0.69,3.76,-3.13,3.45
0.01,-0.66,0.69,3.31,-2.14,4.02
0.0,-0.65,0.7,3.18,-1.19,4.54
-0.01,-0.64,0.7,3.22,-0.45,5.08
-0.01,-0.64,0.7,3.22,-0.45,5.08
-0.02,-0.63,0.71,3.24,-0.05,5.64
-0.03,-0.62,0.73,3.1,0.01,6.2
-0.03,-0.62,0.74,2.68,-0.22,6.6
-0.03,-0.63,0.75,1.93,-0.67,6.86
-0.03,-0.65,0.76,0.96,-1.22,7.17
-0.03,-0.65,0.76,0.96,-1.22,7.17
-0.03,-0.67,0.75,-0.07,-1.75,7.56
-0.04,-0.7,0.75,-0.93,-2.26,7.86
-0.04,-0.71,0.75,-1.51,-2.64,7.94
-0.04,-0.73,0.75,-1.71,-2.86,7.8
-0.03,-0.73,0.76,-1.47,-2.88,7.5
-0.03,-0.73,0.76,-1.47,-2.88,7.5
-0.04,-0.73,0.75,-0.87,-2.7,7.12
-0.04,-0.72,0.75,0.03,-2.36,6.65
-0.04,-0.71,0.76,1.04,-1.91,6.09
-0.05,-0.7,0.76,1.96,-1.49,5.48
-0.05,-0.69,0.75,2.64,-1.13,4.86
-0.05,-0.69,0.75,2.64,-1.13,4.86
-0.06,-0.69,0.75,3.12,-0.99,4.29
-0.06,-0.69,0.75,3.44,-1.12,3.71
-0.06,-0.69,0.74,3.64,-1.55,3.13
-0.06,-0.69,0.73,3.83,-2.26,2.58
-0.06,-0.7,0.73,4.08,-3.3,2.13
-0.06,-0.7,0.73,4.08,-3.3,2.13
-0.05,-0.7,0.72,4.41,-4.56,1.71
-0.04,-0.71,0.72,4.86,-5.92,1.32
-0.03,-0.71,0.71,5.44,-7.21,0.99
-0.02,-0.7,0.7,6.11,-8.22,0.72
-0.01,-0.69,0.71,6.75,-8.87,0.48
-0.01,-0.69,0.71,6.75,-8.87,0.48
-0.01,-0.68,0.7,7.34,-9.15,0.2
0.0,-0.68,0.69,7.79,-9.1,-0.11
0.0,-0.67,0.69,8.11,-8.69,-0.41
-0.0,-0.67,0.68,8.27,-8.05,-0.64
-0.02,-0.67,0.67,8.28,-7.26,-0.85
-0.02,-0.67,0.67,8.28,-7.26,-0.85
-0.03,-0.67,0.67,8.22,-6.4,-1.15
-0.03,-0.67,0.66,8.14,-5.58,-1.52
-0.03,-0.66,0.66,8.08,-4.88,-1.85
-0.03,-0.66,0.66,7.98,-4.35,-2.09
-0.04,-0.66,0.66,7.79,-4.05,-2.25
-0.04,-0.66,0.66,7.79,-4.05,-2.25
-0.05,-0.67,0.64,7.55,-4.05,-2.4
-0.05,-0.68,0.63,7.34,-4.28,-2.56
-0.04,-0.68,0.62,7.25,-4.62,-2.79
-0.03,-0.68,0.62,7.27,-4.94,-3.11
-0.02,-0.68,0.61,7.39,-5.14,-3.41
-0.02,-0.68,0.61,7.39,-5.14,-3.41
-0.03,-0.69,0.6,7.54,-5.17,-3.54
-0.03,-0.69,0.59,7.79,-5.02,-3.57
-0.03,-0.7,0.58,8.14,-4.59,-3.6
-0.02,-0.71,0.58,8.68,-3.71,-3.73
-0.02,-0.71,0.58,9.31,-2.32,-3.89
-0.02,-0.71,0.58,9.31,-2.32,-3.89
-0.03,-0.72,0.58,10.04,-0.48,-4.07
-0.04,-0.73,0.57,10.88,1.74,-4.28
-0.06,-0.72,0.56,11.96,4.15,-4.56
-0.06,-0.71,0.57,13.23,6.57,-4.98
-0.07,-0.68,0.58,14.55,8.79,-5.47
-0.07,-0.68,0.58,14.55,8.79,-5.47
-0.08,-0.67,0.59,15.67,10.67,-5.89
-0.08,-0.65,0.6,16.56,12.11,-6.27
-0.08,-0.63,0.61,17.05,13.04,-6.63
-0.07,-0.62,0.62,17.02,13.58,-7.02
-0.06,-0.62,0.63,16.38,13.83,-7.29
-0.06,-0.62,0.63,16.38,13.83,-7.29
-0.05,-0.63,0.63,15.12,13.87,-7.25
-0.06,-0.65,0.64,13.33,14.04,-6.91
-0.07,-0.67,0.64,11.33,14.15,-6.47
-0.06,-0.69,0.65,9.21,14.51,-6.21
-0.05,-0.72,0.65,7.21,15.33,-6.17
-0.05,-0.72,0.65,7.21,15.33,-6.17
-0.04,-0.74,0.66,5.44,16.71,-6.33
-0.04,-0.75,0.67,3.91,18.69,-6.66
-0.05,-0.76,0.67,2.66,21.15,-7.08
-0.07,-0.78,0.68,1.69,23.73,-7.62
-0.09,-0.79,0.69,0.91,26.26,-8.3
-0.09,-0.79,0.69,0.91,26.26,-8.3
-0.11,-0.8,0.7,0.32,28.52,-8.99
-0.13,-0.81,0.71,-0.12,30.41,-9.67
-0.14,-0.81,0.73,-0.45,31.8,-10.39
-0.16,-0.82,0.74,-0.75,32.64,-11.32
-0.16,-0.83,0.75,-1.13,32.86,-12.45
-0.16,-0.83,0.75,-1.13,32.86,-12.45
-0.17,-0.84,0.75,-1.58,32.49,-13.7
-0.16,-0.84,0.76,-2.01,31.64,-15.06
-0.15,-0.84,0.76,-2.45,30.37,-16.55
-0.13,-0.85,0.75,-2.97,28.91,-18.14
-0.12,-0.84,0.75,-3.67,27.57,-19.77
-0.12,-0.84,0.75,-3.67,27.57,-19.77
-0.11,-0.85,0.74,-4.61,26.53,-21.53
-0.09,-0.86,0.73,-5.8,25.92,-23.46
-0.09,-0.86,0.72,-7.25,25.75,-25.53
-0.08,-0.88,0.71,-8.73,25.91,-28.19
-0.05,-0.92,0.68,-9.88,26.64,-31.12
-0.05,-0.92,0.68,-9.88,26.64,-31.12
-0.05,-0.93,0.67,-10.56,27.65,-33.45
-0.05,-0.91,0.67,-10.78,28.73,-35.33
-0.07,-0.88,0.66,-10.66,29.76,-37.24
-0.08,-0.87,0.66,-10.48,30.45,-39.36
-0.08,-0.87,0.66,-10.53,30.68,-41.43
-0.08,-0.87,0.66,-10.53,30.68,-41.43
-0.07,-0.88,0.65,-10.87,30.47,-43.26
-0.05,-0.9,0.64,-11.19,29.99,-44.85
-0.03,-0.89,0.64,-11.3,29.39,-46.21
-0.0,-0.88,0.64,-11.34,28.79,-47.78
0.02,-0.89,0.63,-11.49,28.29,-49.41
0.02,-0.89,0.63,-11.49,28.29,-49.41
0.04,-0.9,0.62,-11.83,27.8,-51.03
0.05,-0.91,0.6,-12.25,27.26,-52.53
0.06,-0.91,0.58,-12.46,26.62,-53.98
0.07,-0.9,0.57,-12.32,25.87,-55.42
0.09,-0.9,0.57,-11.83,24.95,-56.74
0.09,-0.9,0.57,-11.83,24.95,-56.74
0.11,-0.88,0.58,-11.15,23.86,-57.83
0.13,-0.86,0.58,-10.33,22.71,-58.66
0.13,-0.83,0.59,-9.37,21.54,-59.3
0.14,-0.81,0.61,-8.33,20.18,-59.64
0.14,-0.79,0.63,-7.45,18.45,-59.53
0.14,-0.79,0.63,-7.45,18.45,-59.53
0.14,-0.77,0.65,-7.0,16.27,-59.13
0.16,-0.75,0.67,-7.12,13.84,-58.76
0.2,-0.74,0.69,-7.85,11.51,-58.6
0.26,-0.73,0.73,-9.37,9.71,-58.72
0.31,-0.74,0.76,-11.78,8.95,-59.15
0.31,-0.74,0.76,-11.78,8.95,-59.15
0.35,-0.77,0.76,-14.91,9.48,-59.71
0.35,-0.79,0.76,-18.33,11.03,-60.11
0.31,-0.81,0.75,-21.62,12.99,-60.18
0.26,-0.83,0.75,-24.42,14.83,-60.01
0.2,-0.84,0.75,-26.57,16.01,-59.88
0.2,-0.84,0.75,-26.57,16.01,-59.88
0.16,-0.84,0.74,-27.87,16.24,-60.06
0.15,-0.83,0.73,-28.19,15.57,-60.64
0.16,-0.82,0.74,-27.58,14.2,-61.55
0.19,-0.8,0.75,-26.2,12.32,-62.43
0.22,-0.78,0.77,-24.49,10.18,-63.0
0.22,-0.78,0.77,-24.49,10.18,-63.0
0.25,-0.77,0.78,-22.88,8.1,-63.2
0.26,-0.77,0.8,-21.34,6.09,-63.04
0.26,-0.77,0.81,-19.73,4.27,-62.51
0.24,-0.76,0.8,-17.91,2.66,-61.59
0.22,-0.74,0.81,-15.74,1.27,-60.46
0.22,-0.74,0.81,-15.74,1.27,-60.46
0.21,-0.71,0.82,-13.5,0.34,-59.49
0.21,-0.68,0.83,-11.46,0.01,-58.99
0.24,-0.65,0.83,-9.59,0.42,-58.96
0.26,-0.64,0.85,-8.02,1.84,-59.27
0.26,-0.64,0.85,-7.15,3.85,-59.52
0.26,-0.64,0.85,-7.15,3.85,-59.52
0.24,-0.65,0.84,-7.24,5.74,-59.21
0.21,-0.67,0.82,-8.11,6.92,-58.12
0.17,-0.68,0.82,-9.22,7.24,-56.52
0.13,-0.68,0.81,-10.11,6.57,-54.93
0.1,-0.67,0.8,-10.37,4.86,-53.58
0.1,-0.67,0.8,-10.37,4.86,-53.58
0.08,-0.66,0.8,-9.71,2.28,-52.55
0.09,-0.62,0.81,-8.02,-0.88,-51.71
0.12,-0.58,0.83,-5.63,-4.29,-50.77
0.15,-0.54,0.87,-3.32,-7.4,-49.41
0.18,-0.51,0.89,-1.61,-9.66,-47.76
0.18,-0.51,0.89,-1.61,-9.66,-47.76
0.21,-0.49,0.92,-0.77,-10.67,-46.24
0.23,-0.5,0.95,-0.9,-10.25,-45.08
0.23,-0.51,0.95,-1.84,-8.49,-44.22
0.2,-0.52,0.94,-3.25,-5.72,-43.47
0.16,-0.54,0.92,-4.64,-2.29,-42.86
0.16,-0.54,0.92,-4.64,-2.29,-42.86
0.1,-0.54,0.89,-5.28,1.2,-42.37
0.05,-0.53,0.89,-4.88,4.1,-41.83
0.01,-0.53,0.89,-3.63,5.9,-41.22
-0.01,-0.51,0.91,-1.87,6.26,-40.45
-0.01,-0.5,0.94,0.04,5.18,-39.52
-0.01,-0.5,0.94,0.04,5.18,-39.52
0.01,-0.49,0.97,1.7,2.74,-38.4
0.03,-0.48,0.99,2.82,-0.79,-37.05
0.04,-0.47,1.0,3.25,-5.04,-35.5
0.05,-0.47,1.0,3.1,-9.71,-33.94
0.06,-0.47,0.99,2.62,-14.38,-32.64
0.06,-0.47,0.99,2.62,-14.38,-32.64
0.09,-0.45,0.97,1.91,-18.3,-31.86
0.15,-0.42,0.95,1.03,-20.62,-31.82
0.21,-0.41,0.95,-0.05,-21.02,-32.5
0.26,-0.43,0.96,-1.4,-19.82,-33.34
0.28,-0.47,0.97,-2.84,-17.49,-33.48
0.28,-0.47,0.97,-2.84,-17.49,-33.48
0.26,-0.51,0.97,-4.06,-14.51,-32.24
0.19,-0.53,0.98,-4.83,-11.61,-29.47
0.11,-0.54,0.98,-5.13,-9.42,-25.6
0.03,-0.52,1.0,-4.83,-8.27,-21.44
-0.02,-0.48,1.01,-4.25,-8.47,-17.81
-0.02,-0.48,1.01,-4.25,-8.47,-17.81
-0.07,-0.47,1.03,-4.0,-10.36,-15.35
-0.08,-0.45,1.01,-4.72,-13.83,-14.43
-0.05,-0.45,0.96,-6.26,-18.73,-14.9
0.02,-0.47,0.94,-8.07,-24.46,-16.15
0.11,-0.48,0.94,-9.71,-30.34,-17.34
0.11,-0.48,0.94,-9.71,-30.34,-17.34
0.2,-0.49,0.96,-11.03,-35.42,-18.02
0.26,-0.49,0.96,-11.88,-38.97,-18.06
0.28,-0.49,0.97,-12.36,-40.71,-17.59
0.24,-0.49,0.95,-12.51,-40.8,-16.72
0.17,-0.49,0.91,-12.31,-39.87,-15.85
0.17,-0.49,0.91,-12.31,-39.87,-15.85
0.11,-0.49,0.87,-11.79,-38.69,-15.38
0.09,-0.49,0.83,-10.84,-37.94,-15.17
0.09,-0.48,0.81,-9.55,-38.01,-14.68
0.11,-0.47,0.79,-8.11,-38.91,-13.51
0.15,-0.46,0.8,-6.58,-40.46,-11.65
0.15,-0.46,0.8,-6.58,-40.46,-11.65
0.17,-0.45,0.83,-5.14,-42.38,-9.13
0.18,-0.45,0.85,-4.12,-44.33,-6.17
0.17,-0.45,0.87,-3.74,-46.1,-3.2
0.15,-0.46,0.86,-4.07,-47.72,-0.65
0.13,-0.47,0.85,-5.0,-49.22,1.29
0.13,-0.47,0.85,-5.0,-49.22,1.29
0.11,-0.49,0.82,-6.19,-50.51,2.58
0.1,-0.49,0.78,-7.34,-51.52,3.19
0.11,-0.5,0.73,-8.17,-52.23,3.13
0.14,-0.51,0.69,-8.38,-52.55,2.75
0.17,-0.5,0.68,-7.73,-52.29,2.51
0.17,-0.5,0.68,-7.73,-52.29,2.51
0.2,-0.47,0.69,-6.34,-51.2,2.73
0.21,-0.44,0.72,-4.54,-49.27,3.42
0.2,-0.44,0.75,-2.74,-46.7,4.54
0.16,-0.44,0.77,-1.07,-43.8,6.29
0.09,-0.43,0.78,0.37,-41.13,8.53
0.09,-0.43,0.78,0.37,-41.13,8.53
0.03,-0.42,0.79,1.48,-39.32,10.79
-0.01,-0.42,0.79,2.01,-38.62,13.19
-0.05,-0.43,0.79,1.68,-39.29,15.86
-0.07,-0.46,0.76,0.58,-41.37,18.29
-0.05,-0.5,0.71,-0.98,-44.65,20.43
-0.05,-0.5,0.71,-0.98,-44.65,20.43
-0.02,-0.53,0.68,-2.77,-48.94,22.53
0.02,-0.56,0.67,-4.67,-53.66,24.64
0.07,-0.57,0.65,-6.49,-58.09,26.67
0.1,-0.59,0.63,-7.96,-61.43,28.33
0.11,-0.6,0.61,-8.92,-63.09,29.33
0.11,-0.6,0.61,-8.92,-63.09,29.33
0.12,-0.61,0.58,-9.19,-62.85,29.72
0.11,-0.6,0.57,-8.72,-61.02,29.62
0.1,-0.6,0.56,-7.54,-57.8,29.14
0.1,-0.58,0.56,-5.83,-53.35,28.35
0.08,-0.56,0.56,-3.83,-48.1,27.48
0.08,-0.56,0.56,-3.83,-48.1,27.48
0.05,-0.54,0.57,-1.96,-42.74,26.88
0.02,-0.55,0.58,-0.97,-37.85,26.72
-0.02,-0.57,0.56,-1.31,-34.13,27.09
-0.05,-0.6,0.53,-2.86,-31.98,28.04
-0.07,-0.65,0.5,-5.11,-31.71,29.55
-0.07,-0.65,0.5,-5.11,-31.71,29.55
-0.09,-0.69,0.46,-7.53,-33.27,31.64
-0.09,-0.72,0.42,-9.62,-36.24,34.1
-0.07,-0.73,0.4,-10.99,-39.9,36.53
-0.03,-0.72,0.39,-11.44,-43.6,38.65
0.01,-0.7,0.4,-10.91,-46.63,40.26
0.01,-0.7,0.4,-10.91,-46.63,40.26
0.04,-0.67,0.4,-9.43,-48.33,41.22
0.07,-0.65,0.41,-7.15,-48.41,41.65
0.08,-0.63,0.43,-4.48,-46.94,41.99
0.08,-0.62,0.46,-2.0,-44.38,42.59
0.05,-0.61,0.48,-0.15,-41.02,43.65
0.05,-0.61,0.48,-0.15,-41.02,43.65
0.01,-0.61,0.48,0.84,-37.2,44.89
-0.03,-0.63,0.47,0.87,-33.44,45.98
-0.06,-0.66,0.45,0.11,-30.29,46.81
-0.09,-0.69,0.43,-1.09,-28.09,47.27
-0.09,-0.73,0.41,-2.25,-27.02,47.31
-0.09,-0.73,0.41,-2.25,-27.02,47.31
-0.09,-0.76,0.4,-3.03,-27.16,47.06
-0.09,-0.79,0.38,-3.22,-28.53,46.74
-0.08,-0.81,0.35,-2.64,-30.74,46.51
-0.06,-0.82,0.33,-1.13,-33.6,46.47
-0.06,-0.82,0.33,1.48,-37.13,46.86
-0.03,-0.83,0.33,1.48,-37.13,46.86
-0.0,-0.82,0.34,4.99,-40.77,47.92
0.01,-0.81,0.38,9.11,-44.05,49.61
0.03,-0.8,0.42,13.46,-46.6,51.59
0.04,-0.8,0.44,17.43,-48.01,53.56
0.04,-0.8,0.44,20.76,-48.53,55.6
0.05,-0.8,0.44,20.76,-48.53,55.6
0.03,-0.81,0.44,23.44,-48.39,57.76
0.01,-0.82,0.43,25.54,-47.87,59.9
0.0,-0.83,0.43,27.2,-46.96,61.8
-0.01,-0.84,0.44,28.5,-45.65,63.4
-0.01,-0.84,0.44,28.5,-45.65,63.4
-0.01,-0.85,0.45,29.45,-44.01,64.65
-0.02,-0.87,0.43,30.03,-42.06,65.37
-0.02,-0.89,0.41,30.21,-40.15,65.49
-0.01,-0.91,0.39,30.06,-38.65,65.11
0.01,-0.9,0.38,29.84,-37.57,64.44
0.01,-0.9,0.38,29.84,-37.57,64.44
0.01,-0.87,0.38,29.77,-36.77,63.42
0.03,-0.84,0.38,29.77,-35.78,61.74
0.05,-0.81,0.39,29.41,-34.48,59.36
0.08,-0.8,0.4,28.35,-32.92,56.82
0.1,-0.82,0.4,26.56,-31.04,55.08
0.1,-0.82,0.4,26.56,-31.04,55.08
0.09,-0.83,0.41,24.4,-28.93,54.92
0.05,-0.83,0.42,22.27,-26.67,56.11
0.01,-0.85,0.43,20.34,-24.49,57.86
-0.03,-0.87,0.44,18.55,-22.81,59.8
-0.06,-0.9,0.45,16.73,-22.01,61.83
-0.06,-0.9,0.45,16.73,-22.01,61.83
-0.08,-0.94,0.45,14.94,-22.11,63.61
-0.07,-0.99,0.42,13.34,-22.83,64.64
-0.04,-1.03,0.4,12.3,-23.93,64.84
-0.01,-1.04,0.36,12.35,-25.17,64.47
0.01,-1.02,0.35,13.77,-26.26,63.73
0.01,-1.02,0.35,13.77,-26.26,63.73
0.03,-0.98,0.37,16.2,-27.01,62.61
0.04,-0.93,0.39,18.67,-27.48,61.12
0.05,-0.88,0.41,20.29,-27.72,59.37
0.05,-0.86,0.43,20.59,-27.72,57.65
0.05,-0.87,0.44,19.48,-27.48,56.13
0.05,-0.87,0.44,19.48,-27.48,56.13
0.05,-0.89,0.44,17.27,-26.74,54.81
0.04,-0.92,0.44,14.61,-25.42,53.8
0.03,-0.95,0.43,12.2,-23.61,53.18
-0.01,-0.97,0.43,10.47,-21.3,52.85
-0.04,-0.97,0.43,9.77,-18.52,52.53
-0.04,-0.97,0.43,9.77,-18.52,52.53
-0.08,-0.97,0.43,10.27,-15.53,52.1
-0.1,-0.95,0.43,11.83,-12.65,51.63
-0.1,-0.92,0.45,14.09,-10.24,51.28
-0.1,-0.87,0.48,16.56,-8.65,51.12
-0.1,-0.83,0.51,18.79,-7.95,51.21
-0.1,-0.83,0.51,18.79,-7.95,51.21
-0.12,-0.78,0.53,20.27,-8.28,51.65
-0.15,-0.73,0.54,20.56,-9.9,52.27
-0.17,-0.7,0.55,19.38,-13.01,52.81
-0.16,-0.7,0.55,16.32,-17.57,53.08
-0.12,-0.72,0.53,11.3,-23.17,53.0
-0.12,-0.72,0.53,11.3,-23.17,53.0
-0.08,-0.82,0.46,5.0,-29.18,52.65
0.03,-0.85,0.43,-0.31,-34.66,52.21
0.09,-0.84,0.47,-5.21,-38.15,52.4
0.13,-0.88,0.49,-11.77,-39.9,52.35
0.15,-1.01,0.41,-19.06,-39.93,52.43
0.15,-1.01,0.41,-19.06,-39.93,52.43
0.1,-1.06,0.36,-24.37,-38.41,53.13
0.08,-1.06,0.37,-28.32,-35.07,51.66
0.13,-1.1,0.38,-31.72,-30.28,48.02
0.1,-1.07,0.4,-34.68,-25.43,46.07
0.08,-1.19,0.34,-37.43,-21.04,43.7
0.08,-1.19,0.34,-37.43,-21.04,43.7
0.12,-1.31,0.21,-36.86,-16.44,40.67
0.16,-1.3,0.22,-31.91,-11.58,38.56
0.13,-1.24,0.34,-24.78,-7.11,38.0
0.08,-1.15,0.42,-17.43,-3.37,37.74
0.05,-1.1,0.42,-11.13,-0.25,36.2
0.05,-1.1,0.42,-11.13,-0.25,36.2
0.06,-1.09,0.41,-6.4,2.13,33.92
0.05,-1.1,0.43,-3.09,3.58,32.24
0.05,-1.1,0.43,-0.55,4.36,31.03
0.04,-1.08,0.43,1.72,5.02,29.68
0.02,-1.07,0.44,3.64,5.61,28.09
0.02,-1.07,0.44,3.64,5.61,28.09
-0.0,-1.06,0.45,4.86,6.2,26.33
-0.02,-1.05,0.43,5.32,6.8,24.08
-0.01,-1.06,0.41,5.38,7.56,21.24
0.01,-1.08,0.39,5.7,8.57,18.09
0.04,-1.08,0.37,6.75,10.17,15.01
0.04,-1.08,0.37,6.75,10.17,15.01
0.03,-1.05,0.38,8.46,12.33,12.64
0.01,-1.01,0.4,10.59,14.86,10.24
0.01,-0.99,0.39,12.89,17.61,7.5
0.01,-1.0,0.39,15.3,20.22,5.15
0.02,-0.99,0.4,17.99,22.56,3.28
0.02,-0.99,0.4,17.99,22.56,3.28
0.03,-0.97,0.42,20.85,24.72,2.02
0.02,-0.94,0.45,23.46,26.36,1.71
-0.0,-0.92,0.47,25.39,27.2,2.38
-0.03,-0.91,0.48,26.45,27.11,3.71
-0.05,-0.91,0.49,26.74,26.22,5.07
-0.05,-0.91,0.49,26.74,26.22,5.07
-0.06,-0.93,0.48,26.46,24.66,6.09
-0.06,-0.96,0.48,25.96,22.62,6.71
-0.06,-0.97,0.47,25.64,20.53,6.86
-0.06,-0.97,0.47,25.68,18.88,6.31
-0.05,-0.95,0.46,25.99,17.75,4.96
-0.05,-0.95,0.46,25.99,17.75,4.96
-0.04,-0.94,0.46,26.49,17.21,2.87
-0.01,-0.93,0.46,26.96,17.35,0.3
0.02,-0.92,0.47,27.27,18.23,-2.36
0.05,-0.91,0.48,27.36,19.89,-4.72
0.06,-0.91,0.48,27.33,22.14,-6.66
0.06,-0.91,0.48,27.33,22.14,-6.66
0.05,-0.92,0.48,27.22,24.79,-8.3
0.04,-0.92,0.48,27.39,27.46,-9.62
0.03,-0.92,0.48,28.11,29.75,-10.35
0.02,-0.91,0.5,29.31,31.44,-10.5
0.02,-0.92,0.52,30.73,32.49,-10.41
0.02,-0.92,0.52,30.73,32.49,-10.41
0.04,-0.93,0.55,32.27,32.99,-10.67
0.1,-0.98,0.52,34.13,33.35,-10.43
0.03,-0.88,0.55,36.36,33.45,-7.05
-0.08,-0.76,0.63,38.27,33.16,-5.79
-0.08,-0.75,0.63,39.61,33.56,-10.42
-0.08,-0.75,0.63,39.61,33.56,-10.42
-0.0,-0.89,0.6,40.29,33.8,-17.91
0.08,-0.88,0.59,40.68,33.67,-23.85
0.12,-0.79,0.64,40.76,33.46,-27.87
0.14,-0.71,0.69,40.25,33.64,-30.96
0.15,-0.68,0.73,38.17,34.09,-33.84
0.15,-0.68,0.73,38.17,34.09,-33.84
0.17,-0.69,0.75,33.76,34.66,-35.91
0.15,-0.69,0.74,27.34,35.31,-37.14
0.13,-0.71,0.72,20.05,36.17,-39.04
0.14,-0.81,0.66,13.44,37.17,-42.24
0.21,-0.91,0.6,9.28,38.27,-45.16
0.21,-0.91,0.6,9.28,38.27,-45.16
0.21,-0.89,0.63,7.81,39.15,-46.36
0.22,-0.88,0.67,8.84,40.04,-47.63
0.21,-0.86,0.68,11.53,40.97,-48.46
0.21,-0.81,0.7,15.22,41.75,-48.92
0.22,-0.75,0.74,19.35,42.74,-49.41
0.22,-0.75,0.74,19.35,42.74,-49.41
0.22,-0.69,0.77,23.2,43.81,-49.81
0.2,-0.65,0.8,26.37,44.71,-49.76
0.18,-0.61,0.82,28.42,45.44,-49.29
0.15,-0.58,0.85,29.09,45.86,-48.74
0.14,-0.58,0.85,28.51,46.03,-48.35
0.14,-0.58,0.85,28.51,46.03,-48.35
0.13,-0.56,0.84,26.9,45.99,-48.05
0.12,-0.56,0.84,24.78,45.71,-48.14
0.13,-0.58,0.83,22.79,45.3,-48.76
0.14,-0.59,0.84,21.07,44.77,-49.47
0.15,-0.58,0.84,19.66,44.24,-49.8
0.15,-0.58,0.84,19.66,44.24,-49.8
0.15,-0.56,0.85,18.47,43.83,-49.62
0.14,-0.55,0.85,17.37,43.54,-49.08
0.12,-0.54,0.84,16.47,43.21,-48.15
0.11,-0.54,0.84,15.85,42.71,-46.86
0.1,-0.53,0.84,15.58,41.94,-45.13
0.1,-0.53,0.84,15.58,41.94,-45.13
0.09,-0.52,0.85,15.48,40.94,-42.98
0.08,-0.53,0.84,15.5,39.76,-40.64
0.07,-0.54,0.84,15.67,38.55,-38.26
0.05,-0.54,0.84,16.03,37.38,-35.91
0.03,-0.53,0.85,16.53,36.21,-33.66
0.03,-0.53,0.85,16.53,36.21,-33.66
0.02,-0.52,0.85,17.13,34.86,-31.63
0.02,-0.5,0.86,17.67,33.29,-29.71
0.01,-0.49,0.87,17.82,31.71,-27.84
-0.0,-0.47,0.87,17.37,30.23,-26.15
-0.0,-0.47,0.87,16.3,28.79,-24.74
-0.0,-0.47,0.87,16.3,28.79,-24.74
-0.01,-0.47,0.87,14.58,27.32,-23.56
-0.01,-0.49,0.87,12.16,25.73,-22.56
-0.01,-0.53,0.85,9.21,24.01,-21.64
0.01,-0.57,0.83,6.25,22.25,-20.82
0.01,-0.59,0.83,3.55,20.51,-19.76
0.01,-0.59,0.83,3.55,20.51,-19.76
0.02,-0.62,0.8,1.34,18.77,-18.71
0.02,-0.64,0.79,-0.18,17.09,-17.38
0.01,-0.64,0.78,-1.1,15.36,-15.64
-0.01,-0.63,0.78,-1.54,13.63,-14.16
-0.0,-0.65,0.75,-1.42,11.87,-13.23
-0.0,-0.65,0.75,-1.42,11.87,-13.23
0.0,-0.64,0.75,-0.81,10.02,-12.05
-0.01,-0.63,0.76,-0.13,8.12,-10.72
0.01,-0.64,0.75,0.58,6.25,-9.75
0.02,-0.64,0.76,1.1,4.54,-8.56
