ax,ay,az,gx,gy,gz
0.06,0.04,1.01,-1.72,-1.94,1.31
0.06,0.03,1.0,-2.59,-2.12,1.34
0.07,0.02,1.0,-3.26,-2.21,1.4
0.07,0.01,0.99,-3.57,-2.09,1.39
0.06,0.01,0.98,-3.55,-1.75,1.27
0.05,0.01,0.98,-3.26,-1.42,1.07
0.05,0.01,0.98,-3.26,-1.42,1.07
0.05,0.01,0.97,-2.75,-1.23,0.85
0.05,0.01,0.97,-2.07,-1.22,0.63
0.05,0.02,0.97,-1.25,-1.37,0.43
0.06,0.04,0.97,-0.34,-1.63,0.27
0.06,0.06,0.98,0.51,-1.85,0.11
0.06,0.06,0.98,0.51,-1.85,0.11
0.06,0.07,0.99,1.07,-2.0,-0.14
0.06,0.07,0.99,1.16,-2.1,-0.43
0.08,0.07,0.99,0.75,-2.17,-0.64
0.08,0.05,0.98,0.02,-2.22,-0.69
0.07,0.04,0.97,-0.81,-2.22,-0.6
0.07,0.04,0.97,-0.81,-2.22,-0.6
0.07,0.02,0.97,-1.45,-2.22,-0.47
0.07,0.01,0.96,-1.75,-2.16,-0.37
0.07,0.01,0.96,-1.63,-1.88,-0.37
0.07,0.02,0.96,-1.14,-1.34,-0.49
0.07,0.03,0.97,-0.5,-0.61,-0.7
0.07,0.03,0.97,-0.5,-0.61,-0.7
0.06,0.04,0.97,0.12,0.24,-0.91
0.06,0.04,0.97,0.63,1.06,-1.04
0.05,0.05,0.97,1.05,1.8,-1.06
0.05,0.05,0.97,1.48,2.45,-0.98
0.04,0.06,0.98,2.06,2.95,-0.81
0.04,0.06,0.98,2.06,2.95,-0.81
0.02,0.07,0.99,2.69,3.28,-0.65
0.02,0.08,0.99,3.15,3.29,-0.52
0.02,0.08,1.0,3.32,2.94,-0.32
0.02,0.08,1.0,3.06,2.23,-0.04
0.03,0.07,1.0,2.4,1.22,0.3
0.03,0.07,1.0,2.4,1.22,0.3
0.04,0.06,0.99,1.51,0.06,0.69
0.05,0.05,0.99,0.58,-1.04,1.09
0.06,0.04,0.98,-0.24,-1.99,1.36
0.07,0.02,0.97,-0.89,-2.65,1.48
0.08,0.01,0.97,-1.27,-2.97,1.46
0.08,0.01,0.97,-1.27,-2.97,1.46
0.09,0.01,0.96,-1.32,-2.86,1.33
0.1,0.0,0.97,-1.0,-2.3,1.11
0.09,0.0,0.96,-0.34,-1.4,0.84
0.09,-0.0,0.96,0.51,-0.3,0.58
0.08,0.0,0.96,1.52,0.88,0.37
0.08,0.0,0.96,1.52,0.88,0.37
0.08,0.0,0.95,2.66,2.03,0.21
0.08,0.0,0.95,3.94,3.11,0.16
0.07,0.02,0.95,5.39,4.07,0.18
0.05,0.04,0.95,6.88,4.83,0.19
0.04,0.07,0.96,8.06,5.29,0.11
0.04,0.07,0.96,8.06,5.29,0.11
0.03,0.1,0.98,8.55,5.47,-0.15
0.03,0.12,0.99,7.97,5.35,-0.64
0.04,0.12,1.0,6.08,4.89,-1.37
0.07,0.11,1.0,2.89,4.21,-2.18
0.08,0.08,0.99,-1.29,3.56,-2.92
0.08,0.08,0.99,-1.29,3.56,-2.92
0.1,0.04,0.97,-5.87,3.21,-3.55
0.11,0.0,0.96,-10.16,3.19,-4.01
0.11,-0.03,0.95,-13.69,3.6,-4.36
0.09,-0.05,0.94,-16.17,4.54,-4.68
0.08,-0.06,0.94,-17.42,5.82,-4.94
0.08,-0.06,0.94,-17.42,5.82,-4.94
0.07,-0.07,0.94,-17.5,7.11,-5.08
0.07,-0.08,0.94,-16.47,8.32,-5.03
0.07,-0.08,0.94,-14.42,9.43,-4.71
0.06,-0.08,0.95,-11.4,10.46,-4.07
0.05,-0.06,0.96,-7.59,11.37,-3.16
0.05,-0.06,0.96,-7.59,11.37,-3.16
0.02,-0.03,0.98,-3.23,12.16,-2.2
-0.0,-0.0,1.0,1.29,12.68,-1.39
-0.01,0.03,1.03,5.39,12.83,-0.78
0.0,0.05,1.05,8.55,12.58,-0.34
0.01,0.05,1.06,10.67,12.06,-0.02
0.01,0.05,1.06,10.67,12.06,-0.02
0.02,0.05,1.06,11.93,11.49,0.22
0.03,0.04,1.05,12.48,10.95,0.5
0.05,0.02,1.05,12.6,10.48,0.91
0.06,0.01,1.03,12.47,10.12,1.56
0.07,-0.01,1.02,12.36,9.98,2.39
0.07,-0.01,1.02,12.36,9.98,2.39
0.08,-0.03,1.01,12.52,10.13,3.42
0.09,-0.05,1.0,13.14,10.59,4.62
0.1,-0.07,0.98,14.25,11.33,6.13
0.1,-0.08,0.98,15.85,12.25,7.99
0.09,-0.09,0.97,17.94,13.23,10.19
0.09,-0.09,0.97,17.94,13.23,10.19
0.04,-0.09,0.97,20.5,13.99,12.56
-0.06,-0.05,0.97,23.54,14.2,14.52
-0.15,0.01,0.99,26.75,13.48,15.34
-0.22,0.09,1.02,29.47,11.26,14.77
-0.25,0.19,1.05,30.81,7.18,12.81
-0.25,0.19,1.05,30.81,7.18,12.81
-0.24,0.26,1.1,29.86,1.06,9.59
-0.18,0.32,1.19,25.76,-6.79,5.61
-0.11,0.36,1.25,17.18,-16.0,1.64
-0.03,0.37,1.26,3.22,-26.23,-1.89
0.05,0.32,1.22,-15.96,-36.59,-4.83
0.05,0.32,1.22,-15.96,-36.59,-4.83
0.12,0.19,1.16,-38.51,-45.81,-7.43
0.18,0.02,1.13,-62.0,-53.1,-9.94
0.26,-0.14,1.09,-84.31,-58.08,-12.28
0.34,-0.3,1.02,-103.63,-60.12,-14.27
0.43,-0.5,0.92,-117.29,-58.13,-15.9
0.43,-0.5,0.92,-117.29,-58.13,-15.9
0.48,-0.7,0.77,-122.6,-51.53,-17.65
0.49,-0.87,0.72,-119.83,-42.39,-19.41
0.49,-0.97,0.69,-109.68,-31.44,-20.74
0.47,-1.0,0.65,-92.25,-18.64,-21.69
0.43,-0.95,0.6,-68.14,-4.6,-22.36
0.43,-0.95,0.6,-68.14,-4.6,-22.36
0.35,-0.82,0.59,-38.62,9.75,-22.68
0.28,-0.65,0.62,-5.27,23.65,-22.59
0.18,-0.45,0.69,29.81,36.33,-22.08
0.08,-0.26,0.78,64.12,46.98,-21.58
-0.03,-0.04,0.9,95.65,54.74,-21.53
-0.03,-0.04,0.9,95.65,54.74,-21.53
-0.11,0.2,1.13,122.85,59.88,-22.55
-0.17,0.43,1.26,144.69,64.37,-25.21
-0.23,0.64,1.4,160.14,68.25,-29.34
-0.35,0.86,1.67,166.35,68.92,-34.22
-0.39,1.02,1.64,156.81,62.49,-39.41
-0.39,1.02,1.64,156.81,62.49,-39.41
-0.32,1.03,1.29,130.67,49.07,-44.48
-0.18,0.92,1.22,94.37,31.96,-48.77
0.01,0.7,1.23,50.95,12.78,-51.54
0.15,0.44,1.19,3.53,-5.82,-52.44
0.2,0.19,1.13,-43.29,-22.92,-52.13
0.2,0.19,1.13,-43.29,-22.92,-52.13
0.23,-0.04,1.07,-85.68,-38.2,-51.74
0.28,-0.23,0.99,-121.79,-50.6,-52.04
0.35,-0.43,0.85,-150.6,-58.96,-53.06
0.51,-0.73,0.77,-168.94,-60.48,-54.86
0.61,-1.01,0.53,-171.61,-52.5,-57.05
0.61,-1.01,0.53,-171.61,-52.5,-57.05
0.54,-1.14,0.46,-158.5,-39.46,-58.51
0.38,-1.03,0.57,-135.08,-26.74,-57.85
0.24,-0.74,0.67,-105.01,-13.97,-55.59
0.11,-0.41,0.82,-71.64,-1.26,-52.96
-0.03,-0.09,0.99,-40.71,8.82,-50.26
-0.03,-0.09,0.99,-40.71,8.82,-50.26
-0.12,0.12,1.1,-15.71,14.81,-48.92
-0.09,0.18,1.0,3.75,17.77,-48.44
-0.09,0.23,0.95,21.26,18.9,-44.79
-0.13,0.29,1.07,37.61,18.92,-39.83
-0.16,0.36,1.26,50.67,17.65,-35.6
-0.16,0.36,1.26,50.67,17.65,-35.6
-0.14,0.4,1.32,57.73,15.54,-33.25
-0.12,0.43,1.38,56.72,11.1,-32.54
-0.06,0.41,1.29,44.74,2.19,-33.42
0.03,0.28,1.06,22.83,-10.01,-35.0
0.03,0.28,1.06,-3.28,-22.66,-36.58
0.12,0.1,1.0,-3.28,-22.66,-36.58
0.23,-0.08,1.04,-29.34,-33.95,-38.34
0.35,-0.25,1.0,-53.11,-42.18,-40.54
0.42,-0.38,0.89,-72.04,-45.58,-43.25
0.5,-0.58,0.8,-83.56,-43.13,-46.4
0.5,-0.58,0.8,-84.13,-33.63,-49.46
0.51,-0.78,0.58,-84.13,-33.63,-49.46
0.38,-0.89,0.47,-72.38,-19.86,-51.56
0.11,-0.75,0.58,-50.8,-6.47,-51.36
-0.12,-0.4,0.77,-23.81,4.6,-49.71
-0.22,-0.07,0.94,3.85,12.78,-48.21
-0.22,-0.07,0.94,3.85,12.78,-48.21
-0.24,0.23,1.06,29.32,18.22,-46.74
-0.27,0.48,1.19,50.03,20.6,-44.84
-0.29,0.68,1.28,64.03,19.72,-42.24
-0.3,0.82,1.33,70.32,16.15,-38.99
-0.35,0.92,1.42,68.4,9.68,-35.89
-0.35,0.92,1.42,68.4,9.68,-35.89
-0.26,0.85,1.44,56.92,-0.87,-35.01
-0.14,0.74,1.26,35.91,-14.26,-34.33
0.01,0.55,1.1,8.36,-28.66,-33.72
0.14,0.34,1.06,-21.95,-42.65,-33.69
0.26,0.15,1.04,-52.0,-54.84,-33.91
0.26,0.15,1.04,-52.0,-54.84,-33.91
0.39,-0.04,0.99,-79.66,-63.95,-34.97
0.57,-0.29,0.92,-102.1,-67.96,-36.73
0.75,-0.6,0.66,-113.51,-62.73,-39.32
0.79,-0.87,0.33,-108.88,-48.38,-42.31
0.7,-1.02,0.26,-89.84,-31.35,-43.81
0.7,-1.02,0.26,-89.84,-31.35,-43.81
0.5,-0.9,0.43,-59.55,-14.93,-42.03
0.35,-0.66,0.58,-22.59,1.45,-39.25
0.32,-0.44,0.65,15.79,17.29,-38.1
0.34,-0.27,0.73,52.03,31.15,-38.41
0.28,-0.07,0.81,85.08,42.24,-38.8
0.28,-0.07,0.81,85.08,42.24,-38.8
0.02,0.26,0.87,114.53,49.76,-38.81
-0.0,0.34,1.03,139.41,52.44,-42.13
-0.04,0.62,1.14,160.93,53.56,-42.08
-0.15,0.98,1.3,179.15,54.84,-37.71
-0.33,1.27,1.8,191.71,55.68,-33.52
-0.33,1.27,1.8,191.71,55.68,-33.52
-0.59,1.66,1.96,187.42,46.67,-30.51
-0.41,1.58,1.31,153.82,23.72,-31.81
-0.23,1.45,1.02,107.41,0.18,-34.94
-0.03,1.18,1.05,55.55,-23.08,-34.58
0.17,0.8,0.96,-0.56,-40.89,-30.66
0.17,0.8,0.96,-0.56,-40.89,-30.66
0.31,0.47,0.86,-58.13,-51.98,-26.38
0.31,0.17,0.89,-112.15,-59.97,-23.91
0.25,-0.21,1.08,-156.74,-67.71,-23.33
0.36,-0.55,1.11,-187.94,-73.67,-23.35
0.53,-0.83,0.62,-203.17,-67.63,-24.29
0.53,-0.83,0.62,-203.17,-67.63,-24.29
0.56,-1.08,0.0,-196.05,-48.79,-27.47
0.46,-1.27,-0.14,-166.43,-27.02,-31.17
0.26,-1.12,0.2,-119.78,-9.91,-30.98
0.06,-0.63,0.55,-65.13,2.9,-26.22
-0.07,-0.08,0.8,-10.85,13.52,-20.69
-0.07,-0.08,0.8,-10.85,13.52,-20.69
-0.12,0.39,1.01,38.27,22.75,-17.49
-0.11,0.78,1.21,78.61,30.97,-16.7
-0.1,1.1,1.42,106.07,36.82,-15.93
-0.19,1.35,1.58,115.81,38.59,-11.84
-0.36,1.48,1.47,105.38,33.7,-4.49
-0.36,1.48,1.47,105.38,33.7,-4.49
-0.4,1.38,1.22,81.36,23.25,0.27
-0.22,1.04,1.2,54.08,12.17,-1.26
-0.03,0.7,1.22,25.41,2.42,-5.07
0.04,0.47,1.14,-5.06,-6.28,-6.6
0.04,0.35,0.99,-35.95,-14.03,-5.26
0.04,0.35,0.99,-35.95,-14.03,-5.26
0.01,0.26,0.88,-64.66,-21.18,-2.57
0.03,0.11,0.86,-88.96,-28.06,-0.44
0.1,-0.06,0.84,-107.63,-34.13,0.56
0.2,-0.23,0.78,-119.98,-37.85,0.91
0.33,-0.42,0.72,-124.51,-37.87,0.9
0.33,-0.42,0.72,-124.51,-37.87,0.9
0.43,-0.57,0.55,-118.26,-32.65,1.04
0.43,-0.64,0.42,-100.3,-23.18,1.7
0.31,-0.55,0.5,-74.06,-13.45,3.93
0.14,-0.27,0.69,-43.77,-5.35,8.01
0.04,0.02,0.87,-13.43,1.67,12.14
0.04,0.02,0.87,-13.43,1.67,12.14
-0.01,0.27,0.98,14.54,8.05,15.37
-0.05,0.51,1.09,38.09,12.99,18.49
-0.11,0.74,1.29,54.84,15.74,22.56
-0.25,1.01,1.56,60.01,14.26,28.33
-0.3,1.18,1.36,47.02,5.99,35.07
-0.3,1.18,1.36,47.02,5.99,35.07
-0.27,1.16,0.94,18.48,-7.17,40.72
-0.14,0.86,0.88,-16.61,-23.01,42.66
0.02,0.48,0.99,-52.99,-39.21,42.15
0.19,0.15,0.98,-88.93,-52.43,40.73
0.29,-0.08,0.89,-122.49,-61.77,39.64
0.29,-0.08,0.89,-122.49,-61.77,39.64
0.35,-0.28,0.8,-151.98,-67.52,39.2
0.5,-0.57,0.7,-173.39,-67.15,39.49
0.52,-0.82,0.4,-179.27,-56.73,40.12
0.42,-1.09,0.15,-168.02,-40.05,38.95
0.25,-1.21,0.13,-141.53,-23.46,36.77
0.25,-1.21,0.13,-141.53,-23.46,36.77
0.09,-1.03,0.27,-103.24,-9.43,35.92
0.01,-0.68,0.45,-58.75,2.32,36.7
-0.0,-0.34,0.66,-13.84,11.78,37.83
0.04,-0.05,0.88,27.05,19.3,38.14
0.11,0.15,1.06,60.94,25.59,37.73
0.11,0.15,1.06,60.94,25.59,37.73
0.16,0.29,1.12,86.66,31.38,38.12
0.09,0.4,1.12,104.77,36.3,40.64
-0.08,0.51,1.18,116.12,39.75,43.32
-0.18,0.53,1.25,120.9,41.79,42.62
-0.15,0.48,1.29,119.12,42.53,39.02
-0.15,0.48,1.29,119.12,42.53,39.02
-0.12,0.46,1.28,110.27,41.5,35.88
-0.11,0.43,1.2,93.4,37.64,34.03
-0.11,0.33,1.06,69.39,31.22,32.34
-0.09,0.18,1.0,42.56,23.26,30.12
-0.03,0.01,1.01,17.1,15.27,27.47
-0.03,0.01,1.01,17.1,15.27,27.47
0.06,-0.16,0.94,-4.63,8.88,24.73
0.13,-0.31,0.81,-20.27,5.09,22.35
0.21,-0.5,0.71,-27.17,4.76,20.67
0.24,-0.64,0.57,-22.84,8.74,20.34
0.14,-0.66,0.53,-8.19,14.54,21.68
0.14,-0.66,0.53,-8.19,14.54,21.68
-0.05,-0.4,0.66,13.4,18.45,25.25
-0.18,-0.04,0.86,37.8,20.18,29.93
-0.22,0.27,0.99,61.3,21.09,34.05
-0.19,0.51,1.12,80.83,21.13,37.18
-0.15,0.67,1.3,93.3,19.71,40.23
-0.15,0.67,1.3,93.3,19.71,40.23
-0.22,0.82,1.5,94.43,14.82,44.54
-0.25,0.87,1.3,79.74,4.57,49.01
-0.21,0.74,0.99,52.04,-8.93,52.17
-0.17,0.49,0.97,18.71,-23.3,54.31
-0.08,0.24,1.07,-15.79,-37.37,55.72
-0.08,0.24,1.07,-15.79,-37.37,55.72
0.05,0.03,1.07,-49.09,-49.13,56.14
0.16,-0.13,0.96,-79.62,-57.1,55.26
0.25,-0.3,0.86,-105.27,-61.03,53.27
0.38,-0.57,0.77,-122.44,-58.65,50.77
0.41,-0.82,0.52,-126.17,-47.93,48.16
0.41,-0.82,0.52,-126.17,-47.93,48.16
0.35,-1.04,0.36,-116.22,-33.31,45.68
0.22,-1.12,0.32,-94.98,-19.44,44.62
0.08,-0.99,0.4,-64.78,-7.66,45.45
0.02,-0.74,0.52,-28.67,2.48,46.95
0.01,-0.48,0.67,9.04,10.62,48.38
0.01,-0.48,0.67,9.04,10.62,48.38
-0.0,-0.23,0.84,44.56,16.2,49.96
-0.07,0.05,1.04,75.54,19.02,51.99
-0.15,0.32,1.19,100.3,20.43,53.76
-0.18,0.55,1.25,118.58,21.36,54.68
-0.19,0.74,1.4,130.26,22.09,55.13
-0.19,0.74,1.4,130.26,22.09,55.13
-0.32,0.9,1.77,132.49,21.2,55.72
-0.39,0.93,1.6,117.21,13.64,55.72
-0.28,0.74,0.98,84.64,0.64,54.05
-0.18,0.48,0.86,44.98,-13.4,51.38
-0.07,0.2,0.99,2.44,-27.29,48.59
-0.07,0.2,0.99,2.44,-27.29,48.59
0.01,-0.07,1.09,-39.27,-40.49,46.81
0.1,-0.24,1.08,-75.38,-52.14,46.82
0.21,-0.37,0.87,-105.28,-59.45,47.13
0.37,-0.65,0.75,-126.07,-59.99,46.0
0.45,-0.97,0.47,-130.74,-50.77,43.26
0.45,-0.97,0.47,-130.74,-50.77,43.26
0.42,-1.26,0.25,-118.14,-35.18,39.76
0.29,-1.34,0.21,-91.7,-19.41,38.17
0.12,-1.1,0.32,-55.37,-6.07,39.96
0.03,-0.73,0.48,-13.37,5.78,42.96
0.02,-0.4,0.64,29.45,16.38,45.36
0.02,-0.4,0.64,29.45,16.38,45.36
-0.03,-0.08,0.8,68.34,24.39,47.57
-0.07,0.19,0.97,100.37,29.42,48.43
-0.05,0.36,1.02,125.03,32.96,48.7
-0.06,0.53,1.08,144.06,36.43,50.32
-0.09,0.63,1.19,158.23,40.64,51.59
-0.09,0.63,1.19,158.23,40.64,51.59
-0.19,0.7,1.47,167.27,45.32,52.25
-0.4,0.8,1.81,165.51,46.81,52.06
-0.39,0.79,1.31,144.67,40.03,50.18
-0.3,0.64,0.82,110.72,28.8,47.55
-0.21,0.42,0.87,72.81,16.06,45.56
-0.21,0.42,0.87,72.81,16.06,45.56
-0.11,0.2,1.06,33.17,2.76,44.17
0.0,-0.03,1.14,-4.68,-10.43,43.4
0.1,-0.18,1.05,-36.3,-21.63,43.67
0.14,-0.28,0.83,-60.97,-28.29,43.97
0.14,-0.39,0.68,-76.58,-30.7,43.56
0.14,-0.39,0.68,-76.58,-30.7,43.56
0.16,-0.56,0.66,-81.36,-29.06,42.73
0.17,-0.65,0.59,-75.28,-23.3,42.51
0.11,-0.61,0.61,-61.26,-16.13,43.27
0.05,-0.45,0.72,-42.98,-9.42,44.69
0.05,-0.26,0.8,-23.29,-2.53,45.94
0.05,-0.26,0.8,-23.29,-2.53,45.94
0.04,-0.11,0.87,-4.77,4.44,47.11
-0.01,0.06,0.94,10.9,10.36,48.96
-0.08,0.22,0.98,22.68,14.58,52.12
-0.28,0.48,1.04,30.28,16.46,56.69
-0.27,0.42,1.15,32.92,15.61,56.49
-0.27,0.42,1.15,32.92,15.61,56.49
-0.22,0.4,1.09,32.42,14.25,55.92
-0.25,0.48,1.14,29.73,12.64,58.72
-0.37,0.55,1.37,22.04,8.67,61.28
-0.33,0.54,1.36,5.03,0.39,60.56
-0.19,0.43,1.02,-22.06,-10.99,57.91
-0.19,0.43,1.02,-22.06,-10.99,57.91
-0.04,0.17,0.88,-54.43,-23.49,54.43
0.09,-0.11,0.97,-87.26,-35.27,52.53
0.17,-0.27,1.01,-117.31,-44.72,53.28
0.26,-0.47,0.93,-143.2,-50.6,54.21
0.4,-0.79,0.73,-159.28,-49.36,53.15
0.4,-0.79,0.73,-159.28,-49.36,53.15
0.43,-1.07,0.36,-160.19,-38.62,50.87
0.34,-1.28,0.22,-147.1,-25.01,49.85
0.17,-1.29,0.31,-122.42,-13.66,51.88
0.04,-1.08,0.46,-88.86,-3.04,55.28
0.04,-0.84,0.56,-50.76,8.08,56.78
0.04,-0.84,0.56,-50.76,8.08,56.78
0.1,-0.63,0.66,-12.53,18.0,56.61
0.12,-0.45,0.75,23.45,26.55,56.35
0.08,-0.26,0.82,56.34,34.23,56.31
-0.09,-0.04,0.89,84.98,40.9,55.82
-0.15,-0.03,1.01,108.82,45.46,51.07
-0.15,-0.03,1.01,108.82,45.46,51.07
-0.01,-0.02,1.03,128.88,50.6,44.82
-0.05,0.24,1.07,144.74,57.07,45.67
-0.19,0.47,1.39,154.55,61.72,48.96
-0.38,0.71,1.62,151.6,62.55,49.81
-0.38,0.63,1.19,129.86,56.43,46.59
-0.38,0.63,1.19,129.86,56.43,46.59
-0.35,0.37,0.95,98.5,46.02,43.52
-0.25,0.07,1.08,65.84,33.26,42.33
-0.11,-0.05,1.16,34.43,20.27,43.96
-0.04,-0.13,1.09,4.51,8.55,46.3
-0.01,-0.25,0.94,-21.52,-1.51,47.03
-0.01,-0.25,0.94,-21.52,-1.51,47.03
0.05,-0.47,0.84,-40.69,-8.08,46.4
0.09,-0.66,0.69,-50.38,-10.27,45.95
0.07,-0.79,0.57,-50.83,-9.42,45.75
0.04,-0.82,0.54,-43.75,-7.31,45.32
-0.0,-0.73,0.57,-30.39,-4.18,44.17
-0.0,-0.73,0.57,-30.39,-4.18,44.17
-0.02,-0.6,0.62,-12.54,-0.03,41.88
-0.03,-0.45,0.67,7.58,4.41,39.0
-0.05,-0.27,0.76,27.83,8.74,36.31
-0.1,-0.09,0.87,46.23,12.53,33.66
-0.14,0.04,0.97,61.59,15.47,30.98
-0.14,0.04,0.97,61.59,15.47,30.98
-0.18,0.17,1.09,73.29,17.73,29.47
-0.25,0.29,1.2,79.97,19.46,29.56
-0.34,0.37,1.28,79.63,19.54,30.42
-0.38,0.37,1.26,70.57,16.7,30.71
-0.31,0.25,1.13,53.25,10.41,29.59
-0.31,0.25,1.13,53.25,10.41,29.59
-0.17,0.08,1.07,31.29,1.46,28.03
-0.03,-0.08,1.03,8.78,-7.66,27.0
0.11,-0.24,0.98,-11.21,-14.86,26.62
0.23,-0.39,0.86,-25.98,-18.71,26.84
0.27,-0.48,0.72,-33.47,-18.88,27.66
0.27,-0.48,0.72,-33.47,-18.88,27.66
0.25,-0.51,0.75,-34.55,-17.28,29.55
0.21,-0.45,0.86,-31.16,-14.0,32.32
0.18,-0.36,0.93,-25.56,-8.76,35.08
0.15,-0.29,1.01,-19.83,-2.41,37.7
0.08,-0.26,1.07,-15.29,4.61,39.89
0.08,-0.26,1.07,-15.29,4.61,39.89
-0.02,-0.24,1.08,-12.5,11.91,41.22
-0.17,-0.2,1.11,-11.28,18.18,41.75
-0.33,-0.16,1.15,-11.58,22.26,41.4
-0.45,-0.12,1.17,-14.01,23.29,39.92
-0.49,-0.1,1.18,-19.64,20.5,37.24
-0.49,-0.1,1.18,-19.64,20.5,37.24
-0.44,-0.13,1.2,-29.45,13.61,33.01
-0.25,-0.23,1.17,-43.21,3.55,26.89
0.02,-0.4,1.14,-58.64,-7.1,19.87
0.27,-0.59,1.01,-71.63,-14.03,13.39
0.42,-0.78,0.82,-78.92,-15.33,8.28
0.42,-0.78,0.82,-78.92,-15.33,8.28
0.51,-0.93,0.73,-79.89,-12.18,5.43
0.54,-1.02,0.69,-74.3,-5.5,4.97
0.51,-1.06,0.65,-62.32,4.83,5.86
0.44,-1.07,0.62,-44.47,17.96,6.97
0.35,-1.02,0.61,-21.7,32.4,7.88
0.35,-1.02,0.61,-21.7,32.4,7.88
0.25,-0.89,0.65,4.78,46.84,8.84
0.14,-0.69,0.74,33.04,60.25,10.44
0.01,-0.48,0.86,60.48,71.8,12.66
-0.15,-0.25,0.96,84.98,80.34,14.82
-0.31,-0.05,1.07,105.1,85.09,15.92
-0.31,-0.05,1.07,105.1,85.09,15.92
-0.42,0.12,1.24,120.42,86.41,15.36
-0.53,0.27,1.34,130.71,85.31,13.19
-0.63,0.44,1.5,134.66,80.95,9.56
-0.7,0.67,1.68,128.56,70.98,4.5
-0.6,0.77,1.43,107.83,53.98,-1.93
-0.6,0.77,1.43,107.83,53.98,-1.93
-0.43,0.66,1.2,76.1,32.77,-8.22
-0.25,0.4,1.25,39.29,9.59,-12.87
-0.05,0.12,1.26,0.42,-12.46,-15.95
0.11,-0.09,1.17,-37.51,-30.26,-18.27
0.22,-0.28,1.04,-71.42,-42.16,-20.58
0.22,-0.28,1.04,-71.42,-42.16,-20.58
0.34,-0.5,0.96,-98.98,-47.45,-23.19
0.46,-0.79,0.84,-117.11,-44.3,-25.88
0.51,-1.01,0.54,-122.15,-31.64,-28.16
0.49,-1.16,0.4,-115.38,-14.48,-29.43
0.43,-1.19,0.41,-98.33,4.67,-29.71
0.43,-1.19,0.41,-98.33,4.67,-29.71
0.34,-1.07,0.46,-71.99,24.59,-29.02
0.2,-0.83,0.55,-39.14,43.23,-26.69
0.03,-0.56,0.66,-3.71,59.0,-22.82
-0.15,-0.31,0.77,31.62,70.59,-18.5
-0.27,-0.12,0.91,65.04,77.44,-14.88
-0.27,-0.12,0.91,65.04,77.44,-14.88
-0.36,0.07,1.11,95.35,80.72,-12.15
-0.47,0.31,1.33,121.19,81.82,-10.45
-0.69,0.64,1.8,138.44,79.14,-10.65
-0.73,0.88,1.68,137.44,68.13,-13.78
-0.66,0.87,1.28,118.25,51.59,-19.46
-0.66,0.87,1.28,118.25,51.59,-19.46
-0.58,0.69,1.3,90.48,31.06,-25.79
-0.35,0.45,1.32,57.18,7.97,-32.16
-0.09,0.25,1.29,21.88,-13.69,-37.98
0.09,0.09,1.19,-11.73,-31.05,-43.27
0.09,0.09,1.19,-41.79,-42.33,-48.64
0.2,-0.07,1.08,-41.79,-42.33,-48.64
0.27,-0.25,0.98,-67.24,-47.76,-54.4
0.35,-0.43,0.9,-86.96,-47.99,-60.2
0.44,-0.62,0.86,-99.74,-43.49,-65.07
0.52,-0.78,0.66,-103.32,-33.76,-68.07
0.52,-0.78,0.66,-95.98,-20.09,-68.58
0.46,-0.85,0.48,-95.98,-20.09,-68.58
0.28,-0.78,0.51,-79.79,-6.08,-66.33
0.06,-0.58,0.67,-57.16,6.98,-62.15
-0.12,-0.34,0.82,-32.49,17.76,-58.27
-0.2,-0.12,0.91,-9.99,25.15,-55.99
-0.2,-0.12,0.91,-9.99,25.15,-55.99
-0.2,0.06,0.97,9.16,29.36,-55.01
-0.19,0.21,1.03,24.89,30.95,-54.5
-0.19,0.33,1.1,37.16,30.51,-53.99
