ax,ay,az,gx,gy,gz
-0.53,0.04,0.85,-6.13,-0.96,-0.35
-0.53,0.04,0.84,-5.73,-1.5,0.03
-0.54,0.03,0.84,-5.3,-2.11,0.32
-0.54,0.03,0.84,-5.3,-2.11,0.32
-0.52,0.03,0.84,-4.85,-2.71,0.49
-0.51,0.04,0.84,-4.35,-3.22,0.57
-0.51,0.04,0.84,-3.88,-3.51,0.6
-0.51,0.05,0.83,-3.44,-3.61,0.64
-0.51,0.05,0.83,-3.15,-3.63,0.66
-0.51,0.05,0.83,-3.15,-3.63,0.66
-0.51,0.04,0.83,-3.11,-3.7,0.66
-0.51,0.04,0.82,-3.22,-3.83,0.63
-0.51,0.03,0.82,-3.27,-3.89,0.61
-0.5,0.03,0.82,-3.21,-4.02,0.67
-0.5,0.04,0.82,-3.16,-4.19,0.75
-0.5,0.04,0.82,-3.16,-4.19,0.75
-0.5,0.04,0.82,-3.12,-4.35,0.84
-0.49,0.03,0.81,-3.12,-4.54,0.97
-0.49,0.03,0.81,-3.17,-4.76,1.08
-0.49,0.03,0.81,-3.21,-4.99,1.19
-0.49,0.03,0.81,-3.2,-5.16,1.33
-0.49,0.03,0.81,-3.2,-5.16,1.33
-0.5,0.03,0.82,-3.23,-5.4,1.43
-0.5,0.03,0.82,-3.31,-5.7,1.48
-0.49,0.03,0.82,-3.45,-6.04,1.46
-0.48,0.03,0.83,-3.63,-6.3,1.36
-0.48,0.03,0.83,-3.86,-6.44,1.21
-0.48,0.02,0.83,-3.86,-6.44,1.21
-0.47,0.02,0.83,-4.11,-6.37,1.04
-0.47,0.01,0.82,-4.31,-6.11,0.79
-0.47,0.01,0.82,-4.4,-5.74,0.47
-0.47,0.01,0.82,-4.27,-5.4,0.14
-0.47,0.01,0.82,-4.27,-5.4,0.14
-0.48,0.02,0.83,-3.95,-5.08,-0.13
-0.48,0.03,0.83,-3.57,-4.84,-0.38
-0.49,0.03,0.83,-3.21,-4.73,-0.6
-0.49,0.04,0.83,-2.87,-4.83,-0.79
-0.5,0.04,0.83,-2.57,-5.04,-0.99
-0.5,0.04,0.83,-2.57,-5.04,-0.99
-0.5,0.05,0.83,-2.27,-5.35,-1.13
-0.5,0.05,0.84,-2.04,-5.76,-1.22
-0.5,0.06,0.84,-1.95,-6.17,-1.32
-0.5,0.05,0.83,-1.98,-6.5,-1.46
-0.5,0.05,0.83,-2.04,-6.72,-1.64
-0.5,0.05,0.83,-2.04,-6.72,-1.64
-0.49,0.05,0.83,-2.07,-6.86,-1.81
-0.5,0.05,0.82,-2.04,-6.94,-1.98
-0.49,0.05,0.81,-1.89,-6.91,-2.12
-0.49,0.05,0.82,-1.64,-6.82,-2.2
-0.48,0.05,0.82,-1.35,-6.7,-2.27
-0.48,0.05,0.82,-1.35,-6.7,-2.27
-0.48,0.06,0.81,-1.01,-6.4,-2.33
-0.48,0.06,0.82,-0.65,-5.99,-2.31
-0.49,0.07,0.82,-0.38,-5.54,-2.25
-0.49,0.07,0.82,-0.28,-5.1,-2.21
-0.49,0.07,0.83,-0.32,-4.67,-2.12
-0.49,0.07,0.83,-0.32,-4.67,-2.12
-0.49,0.07,0.83,-0.46,-4.33,-1.97
-0.5,0.07,0.83,-0.7,-4.1,-1.8
-0.49,0.07,0.84,-0.96,-4.01,-1.58
-0.49,0.07,0.84,-1.26,-4.06,-1.34
-0.5,0.06,0.84,-1.56,-4.26,-1.07
-0.5,0.06,0.84,-1.56,-4.26,-1.07
-0.49,0.06,0.85,-1.86,-4.57,-0.79
-0.49,0.05,0.85,-2.12,-4.96,-0.54
-0.49,0.05,0.85,-2.34,-5.37,-0.33
-0.49,0.05,0.85,-2.55,-5.81,-0.2
-0.48,0.05,0.85,-2.74,-6.23,-0.1
-0.48,0.05,0.85,-2.74,-6.23,-0.1
-0.48,0.05,0.85,-2.89,-6.57,-0.05
-0.47,0.05,0.85,-3.01,-6.76,-0.03
-0.47,0.05,0.85,-3.12,-6.81,-0.13
-0.46,0.05,0.85,-3.21,-6.72,-0.29
-0.46,0.05,0.86,-3.28,-6.57,-0.45
-0.46,0.05,0.86,-3.28,-6.57,-0.45
-0.47,0.05,0.85,-3.37,-6.37,-0.57
-0.47,0.05,0.85,-3.37,-6.13,-0.61
-0.48,0.05,0.86,-3.35,-6.05,-0.62
-0.48,0.05,0.86,-3.3,-6.08,-0.65
-0.47,0.05,0.86,-3.16,-6.21,-0.64
-0.47,0.05,0.86,-3.16,-6.21,-0.64
-0.47,0.05,0.86,-2.96,-6.42,-0.65
-0.45,0.05,0.87,-2.71,-6.62,-0.68
-0.45,0.06,0.87,-2.41,-6.65,-0.72
-0.44,0.06,0.88,-2.13,-6.55,-0.73
-0.45,0.07,0.88,-1.92,-6.34,-0.73
-0.45,0.07,0.88,-1.92,-6.34,-0.73
-0.45,0.08,0.89,-1.79,-6.11,-0.71
-0.45,0.08,0.88,-1.81,-5.93,-0.67
-0.45,0.08,0.88,-2.01,-5.95,-0.59
-0.45,0.08,0.88,-2.29,-6.14,-0.51
-0.45,0.08,0.88,-2.54,-6.44,-0.42
-0.45,0.08,0.88,-2.54,-6.44,-0.42
-0.44,0.08,0.87,-2.69,-6.8,-0.44
-0.44,0.09,0.87,-2.7,-7.15,-0.51
-0.44,0.1,0.87,-2.57,-7.42,-0.59
-0.44,0.11,0.87,-2.43,-7.74,-0.65
-0.44,0.13,0.87,-2.43,-8.09,-0.69
-0.44,0.13,0.87,-2.43,-8.09,-0.69
-0.45,0.14,0.87,-2.56,-8.31,-0.73
-0.46,0.14,0.87,-2.85,-8.6,-0.77
-0.45,0.15,0.87,-3.37,-9.0,-0.78
-0.45,0.15,0.87,-4.08,-9.32,-0.66
-0.45,0.15,0.86,-4.93,-9.54,-0.34
-0.45,0.15,0.86,-4.93,-9.54,-0.34
-0.46,0.14,0.86,-5.89,-9.74,0.13
-0.46,0.13,0.84,-6.76,-10.01,0.72
-0.46,0.12,0.84,-7.38,-10.37,1.46
-0.46,0.11,0.83,-7.69,-10.84,2.33
-0.46,0.11,0.82,-7.67,-11.43,3.26
-0.46,0.11,0.82,-7.67,-11.43,3.26
-0.45,0.1,0.81,-7.36,-11.99,4.24
-0.44,0.1,0.81,-6.82,-12.45,5.19
-0.43,0.1,0.8,-6.16,-12.67,6.12
-0.43,0.1,0.8,-5.38,-12.56,7.04
-0.44,0.11,0.8,-4.52,-12.16,7.94
-0.44,0.11,0.8,-4.52,-12.16,7.94
-0.45,0.12,0.8,-3.79,-11.6,8.72
-0.46,0.12,0.79,-3.24,-10.88,9.42
-0.46,0.12,0.8,-2.98,-10.4,10.2
-0.46,0.12,0.8,-3.11,-10.14,11.0
-0.47,0.11,0.79,-3.39,-9.94,11.77
-0.47,0.11,0.79,-3.39,-9.94,11.77
-0.48,0.09,0.79,-3.75,-9.82,12.49
-0.48,0.08,0.79,-4.13,-9.82,13.18
-0.48,0.07,0.78,-4.45,-9.8,13.78
-0.48,0.06,0.78,-4.69,-9.75,14.32
-0.48,0.05,0.78,-4.91,-9.59,14.77
-0.48,0.05,0.78,-4.91,-9.59,14.77
-0.49,0.03,0.77,-5.11,-9.24,15.22
-0.49,0.01,0.77,-5.32,-8.7,15.62
-0.5,-0.01,0.77,-5.5,-7.97,16.0
-0.51,-0.02,0.77,-5.58,-7.11,16.32
-0.53,-0.05,0.77,-5.56,-6.14,16.55
-0.53,-0.05,0.77,-5.56,-6.14,16.55
-0.55,-0.07,0.77,-5.46,-5.16,16.71
-0.57,-0.09,0.77,-5.3,-4.22,16.77
-0.58,-0.12,0.77,-5.07,-3.3,16.7
-0.59,-0.14,0.77,-4.73,-2.35,16.47
-0.6,-0.17,0.78,-4.3,-1.28,16.1
-0.6,-0.17,0.78,-4.3,-1.28,16.1
-0.61,-0.19,0.79,-3.76,-0.15,15.6
-0.62,-0.21,0.8,-3.15,1.06,15.02
-0.63,-0.23,0.81,-2.54,2.35,14.33
-0.63,-0.24,0.82,-2.0,3.56,13.48
-0.64,-0.25,0.83,-1.6,4.67,12.39
-0.64,-0.25,0.83,-1.6,4.67,12.39
-0.64,-0.26,0.85,-1.34,5.6,10.96
-0.65,-0.26,0.88,-1.37,6.42,9.18
-0.65,-0.25,0.9,-1.96,7.12,7.15
-0.68,-0.24,0.93,-3.57,7.59,4.96
-0.71,-0.23,0.94,-6.5,7.63,2.48
-0.71,-0.23,0.94,-6.5,7.63,2.48
-0.74,-0.24,0.96,-10.91,7.14,-0.56
-0.74,-0.27,0.97,-16.75,6.04,-4.25
-0.75,-0.3,0.97,-23.68,4.41,-8.69
-0.74,-0.35,0.97,-31.15,2.39,-13.87
-0.72,-0.4,0.96,-38.78,0.07,-19.7
-0.72,-0.4,0.96,-38.78,0.07,-19.7
-0.7,-0.44,0.95,-46.19,-2.49,-25.97
-0.66,-0.48,0.93,-52.91,-5.12,-32.36
-0.63,-0.52,0.91,-58.6,-7.69,-38.55
-0.6,-0.57,0.89,-62.91,-10.06,-44.42
-0.56,-0.6,0.88,-65.59,-11.93,-49.95
-0.56,-0.6,0.88,-65.59,-11.93,-49.95
-0.53,-0.63,0.86,-66.45,-13.06,-55.19
-0.5,-0.65,0.85,-65.27,-13.39,-60.16
-0.47,-0.66,0.85,-62.01,-12.85,-64.68
-0.45,-0.65,0.84,-56.63,-11.63,-68.6
-0.43,-0.62,0.86,-49.43,-10.04,-71.7
-0.43,-0.62,0.86,-49.43,-10.04,-71.7
-0.43,-0.58,0.89,-40.94,-8.33,-73.88
-0.43,-0.53,0.91,-31.88,-6.75,-75.21
-0.42,-0.49,0.94,-22.89,-5.52,-75.95
-0.41,-0.45,0.96,-14.34,-4.76,-76.18
-0.39,-0.42,0.99,-6.45,-4.51,-76.01
-0.39,-0.42,0.99,-6.45,-4.51,-76.01
-0.37,-0.4,1.03,0.75,-4.65,-75.56
-0.35,-0.38,1.06,7.32,-5.12,-74.85
-0.32,-0.35,1.09,13.26,-5.84,-73.59
-0.31,-0.32,1.13,18.5,-6.8,-71.56
-0.31,-0.28,1.17,22.98,-8.05,-68.83
-0.31,-0.28,1.17,22.98,-8.05,-68.83
-0.32,-0.24,1.2,26.72,-9.55,-65.65
-0.35,-0.18,1.22,29.79,-11.13,-62.42
-0.37,-0.13,1.22,32.28,-12.83,-59.4
-0.37,-0.09,1.22,34.13,-14.55,-56.87
-0.36,-0.07,1.23,35.25,-16.39,-55.02
-0.36,-0.07,1.23,35.25,-16.39,-55.02
-0.33,-0.06,1.23,35.77,-18.03,-53.78
-0.28,-0.04,1.22,35.9,-19.37,-52.78
-0.26,-0.03,1.21,36.05,-20.47,-51.67
-0.25,-0.02,1.19,36.61,-21.31,-50.46
-0.24,-0.01,1.16,37.88,-21.93,-49.38
-0.24,-0.01,1.16,37.88,-21.93,-49.38
-0.24,0.01,1.14,39.97,-22.62,-48.65
-0.22,0.03,1.13,42.91,-23.51,-48.37
-0.22,0.11,1.15,46.42,-24.68,-48.72
-0.18,0.12,1.16,49.11,-26.59,-49.83
-0.17,0.19,1.14,50.69,-29.0,-50.11
-0.17,0.19,1.14,50.69,-29.0,-50.11
-0.17,0.18,1.1,51.25,-32.11,-50.74
-0.12,0.15,1.07,52.69,-35.18,-53.23
-0.03,0.13,1.06,55.21,-37.21,-56.42
-0.01,0.19,1.1,57.62,-38.85,-57.89
-0.04,0.28,1.12,58.85,-40.33,-58.83
-0.04,0.28,1.12,58.85,-40.33,-58.83
-0.02,0.32,1.12,58.64,-41.45,-61.41
-0.01,0.36,1.12,56.43,-42.22,-64.72
-0.03,0.41,1.13,51.11,-43.51,-67.52
-0.07,0.43,1.09,42.3,-45.93,-69.85
-0.09,0.38,1.03,30.91,-49.39,-72.22
-0.09,0.38,1.03,30.91,-49.39,-72.22
-0.08,0.31,0.97,18.49,-53.54,-74.47
-0.08,0.24,0.93,6.47,-57.94,-76.13
-0.08,0.19,0.89,-3.96,-62.11,-77.12
-0.07,0.17,0.87,-11.99,-65.51,-77.96
-0.07,0.14,0.86,-17.79,-67.78,-79.19
-0.07,0.14,0.86,-17.79,-67.78,-79.19
-0.07,0.12,0.84,-21.53,-69.03,-80.66
-0.09,0.1,0.81,-23.07,-68.72,-81.59
-0.12,0.09,0.78,-22.0,-67.12,-82.1
-0.18,0.11,0.79,-17.37,-64.24,-82.64
-0.24,0.23,0.85,-9.53,-59.49,-83.88
-0.24,0.23,0.85,-9.53,-59.49,-83.88
-0.28,0.34,0.89,-0.89,-53.7,-85.83
-0.33,0.42,0.88,7.35,-47.65,-87.15
-0.36,0.48,0.87,14.95,-41.13,-87.72
-0.35,0.54,0.91,21.66,-34.81,-87.54
-0.39,0.63,0.97,26.18,-29.27,-85.61
-0.39,0.63,0.97,26.18,-29.27,-85.61
-0.47,0.72,0.99,27.08,-25.08,-82.77
-0.52,0.73,0.95,24.31,-22.81,-81.21
-0.5,0.65,0.91,19.32,-22.3,-81.22
-0.49,0.56,0.93,13.66,-22.77,-80.84
-0.51,0.54,0.96,8.24,-23.53,-78.9
-0.51,0.54,0.96,8.24,-23.53,-78.9
-0.53,0.54,0.94,3.65,-24.33,-76.07
-0.55,0.53,0.9,0.3,-25.55,-73.02
-0.57,0.48,0.86,-1.51,-27.65,-69.64
-0.62,0.45,0.82,-1.62,-30.57,-65.7
-0.62,0.45,0.8,-0.01,-33.98,-61.62
-0.62,0.45,0.8,-0.01,-33.98,-61.62
-0.59,0.47,0.77,3.22,-37.43,-57.69
-0.54,0.51,0.78,7.79,-40.55,-53.74
-0.49,0.56,0.8,13.05,-42.93,-49.43
-0.46,0.61,0.82,18.16,-44.17,-44.6
-0.43,0.63,0.81,22.63,-44.25,-39.33
-0.43,0.63,0.81,22.63,-44.25,-39.33
-0.41,0.63,0.81,26.23,-43.45,-33.69
-0.41,0.63,0.8,28.95,-42.13,-27.71
-0.41,0.62,0.78,31.0,-40.58,-21.56
-0.41,0.62,0.76,32.77,-39.01,-15.33
-0.42,0.61,0.75,34.48,-37.44,-8.85
-0.42,0.61,0.75,34.48,-37.44,-8.85
-0.44,0.6,0.74,35.94,-35.92,-1.82
-0.47,0.58,0.71,36.86,-34.69,5.7
-0.47,0.55,0.67,37.3,-33.99,13.39
-0.44,0.51,0.67,37.75,-33.79,21.13
-0.41,0.49,0.69,38.57,-33.78,28.97
-0.41,0.49,0.69,38.57,-33.78,28.97
-0.39,0.47,0.72,39.65,-33.37,36.98
-0.37,0.45,0.73,40.72,-32.25,45.02
-0.36,0.42,0.7,41.45,-30.69,52.93
-0.36,0.4,0.69,41.69,-29.13,60.52
-0.36,0.39,0.68,41.57,-27.74,67.55
-0.36,0.39,0.68,41.57,-27.74,67.55
-0.36,0.39,0.69,41.3,-26.29,73.94
-0.35,0.38,0.69,40.88,-24.3,79.67
-0.37,0.38,0.7,40.15,-21.37,84.71
-0.38,0.37,0.71,39.0,-17.38,88.97
-0.4,0.36,0.73,37.15,-12.39,92.48
-0.4,0.36,0.73,37.15,-12.39,92.48
-0.41,0.34,0.75,34.27,-6.6,95.46
-0.44,0.31,0.76,30.19,-0.31,98.03
-0.48,0.28,0.75,25.07,6.12,100.12
-0.5,0.24,0.74,19.37,12.23,101.6
-0.53,0.21,0.74,13.53,17.64,102.73
-0.53,0.21,0.74,13.53,17.64,102.73
-0.54,0.19,0.73,7.8,22.1,103.76
-0.57,0.18,0.72,2.34,25.44,104.81
-0.59,0.18,0.72,-2.82,27.65,105.83
-0.61,0.16,0.72,-7.63,28.73,106.74
-0.63,0.14,0.72,-12.2,28.87,107.56
-0.63,0.14,0.72,-12.2,28.87,107.56
-0.63,0.12,0.71,-16.71,28.16,108.4
-0.64,0.11,0.71,-21.22,26.73,109.23
-0.64,0.09,0.73,-25.65,24.75,109.94
-0.64,0.08,0.75,-30.02,22.5,110.44
-0.65,0.07,0.76,-34.49,20.24,110.65
-0.65,0.07,0.76,-34.49,20.24,110.65
-0.67,0.07,0.76,-39.25,18.03,110.59
-0.69,0.09,0.76,-44.37,15.7,110.15
-0.71,0.09,0.76,-50.07,13.18,108.98
-0.7,0.08,0.74,-56.63,10.35,107.01
-0.68,0.05,0.71,-64.25,7.16,104.44
-0.68,0.05,0.71,-64.25,7.16,104.44
-0.66,0.0,0.69,-72.56,3.67,101.42
-0.62,-0.05,0.65,-80.83,0.21,98.05
-0.58,-0.11,0.61,-88.07,-2.9,94.5
-0.54,-0.15,0.56,-93.35,-5.44,91.22
-0.52,-0.17,0.54,-96.02,-7.01,88.51
-0.52,-0.17,0.54,-96.02,-7.01,88.51
-0.5,-0.17,0.52,-95.77,-7.24,86.38
-0.49,-0.16,0.52,-92.71,-6.17,84.87
-0.51,-0.15,0.6,-87.62,-3.97,84.01
-0.53,-0.1,0.62,-81.93,-1.29,84.09
-0.51,-0.15,0.61,-76.26,1.31,85.42
-0.51,-0.15,0.61,-76.26,1.31,85.42
-0.59,-0.1,0.64,-70.02,4.18,89.43
-0.63,-0.12,0.69,-64.87,6.32,93.08
-0.64,-0.17,0.69,-61.37,6.58,96.79
-0.66,-0.27,0.64,-58.51,5.8,101.78
-0.66,-0.37,0.63,-54.3,4.61,106.92
-0.66,-0.37,0.63,-54.3,4.61,106.92
-0.69,-0.37,0.66,-48.59,3.49,111.42
-0.69,-0.36,0.69,-42.73,1.54,114.16
-0.66,-0.34,0.7,-37.29,-1.16,115.31
-0.66,-0.31,0.69,-32.37,-3.89,115.71
-0.65,-0.3,0.7,-27.79,-6.44,114.5
-0.65,-0.3,0.7,-27.79,-6.44,114.5
-0.6,-0.29,0.7,-23.06,-8.13,111.25
-0.57,-0.28,0.69,-18.12,-8.37,106.63
-0.5,-0.34,0.66,-12.37,-7.3,100.66
-0.34,-0.4,0.69,-4.8,-3.7,95.46
-0.34,-0.4,0.69,2.05,1.92,95.56
-0.42,-0.23,0.75,2.05,1.92,95.56
-0.55,-0.13,0.77,5.75,6.07,96.57
-0.49,-0.17,0.72,8.67,10.11,93.75
-0.5,-0.16,0.74,11.27,15.33,90.76
-0.52,-0.2,0.79,11.75,19.43,88.76
-0.52,-0.2,0.79,10.76,23.06,88.91
-0.52,-0.25,0.75,10.76,23.06,88.91
-0.55,-0.27,0.7,10.1,26.87,90.88
-0.6,-0.27,0.71,10.1,29.71,92.52
-0.63,-0.27,0.74,10.35,31.16,92.21
-0.61,-0.29,0.75,10.56,31.39,89.57
-0.61,-0.29,0.75,10.56,31.39,89.57
-0.57,-0.32,0.75,10.86,30.86,85.45
-0.52,-0.34,0.77,11.49,30.01,80.74
-0.47,-0.34,0.79,12.56,29.5,75.95
-0.43,-0.32,0.8,14.01,29.63,71.64
-0.42,-0.26,0.82,15.52,30.42,68.1
-0.42,-0.26,0.82,15.52,30.42,68.1
-0.43,-0.21,0.85,16.62,31.67,64.88
-0.43,-0.2,0.88,16.88,33.39,61.52
-0.43,-0.2,0.9,15.81,35.56,58.46
-0.43,-0.21,0.91,13.24,37.9,55.96
-0.43,-0.25,0.92,9.69,40.18,53.92
-0.43,-0.25,0.92,9.69,40.18,53.92
-0.45,-0.3,0.9,6.01,42.37,52.08
-0.46,-0.37,0.89,3.21,44.42,50.4
-0.48,-0.41,0.9,1.65,46.08,48.97
-0.5,-0.44,0.91,1.35,47.17,47.33
-0.51,-0.46,0.92,2.25,47.86,45.03
-0.51,-0.46,0.92,2.25,47.86,45.03
-0.52,-0.46,0.94,4.09,48.09,41.71
-0.51,-0.46,0.94,6.68,47.87,37.31
-0.48,-0.44,0.94,10.1,47.41,32.1
-0.44,-0.43,0.93,14.48,46.79,26.59
-0.4,-0.4,0.95,19.53,46.07,21.45
-0.4,-0.4,0.95,19.53,46.07,21.45
-0.38,-0.35,0.97,24.73,45.32,17.02
-0.37,-0.29,1.0,29.41,44.55,13.23
-0.38,-0.24,1.03,32.97,43.68,9.69
-0.37,-0.22,1.04,34.98,42.72,6.25
-0.37,-0.22,1.06,35.37,41.75,2.92
-0.37,-0.22,1.06,35.37,41.75,2.92
-0.38,-0.25,1.05,34.45,41.07,-0.54
-0.41,-0.29,1.04,33.1,40.88,-4.26
-0.44,-0.3,1.04,32.14,41.09,-8.27
-0.47,-0.3,1.05,31.94,41.65,-12.72
-0.47,-0.26,1.06,32.36,42.26,-17.68
-0.47,-0.26,1.06,32.36,42.26,-17.68
-0.45,-0.21,1.08,33.13,42.63,-23.05
-0.44,-0.15,1.1,34.01,42.64,-28.64
-0.42,-0.09,1.12,34.74,42.09,-34.17
-0.41,-0.04,1.15,34.9,40.78,-39.38
-0.4,0.01,1.18,34.07,38.75,-44.08
-0.4,0.01,1.18,34.07,38.75,-44.08
-0.41,0.06,1.2,32.07,36.14,-48.21
-0.42,0.08,1.21,28.78,33.12,-51.82
-0.42,0.08,1.2,24.43,29.76,-55.09
-0.43,0.06,1.19,19.34,26.27,-58.19
-0.44,0.05,1.16,14.11,22.88,-61.2
-0.44,0.05,1.16,14.11,22.88,-61.2
-0.45,0.03,1.16,9.3,19.55,-64.13
-0.45,0.03,1.15,4.92,16.26,-66.97
-0.45,0.03,1.14,0.95,12.98,-69.82
-0.46,0.02,1.14,-2.59,9.67,-72.6
-0.46,0.02,1.13,-5.65,6.4,-75.49
-0.46,0.02,1.13,-5.65,6.4,-75.49
-0.44,0.02,1.11,-8.12,3.19,-78.42
-0.42,0.01,1.08,-9.9,-0.01,-81.14
-0.39,0.01,1.04,-10.52,-3.06,-83.4
-0.41,0.06,1.04,-9.74,-5.74,-85.16
-0.35,0.02,1.03,-8.31,-8.24,-87.56
-0.35,0.02,1.03,-8.31,-8.24,-87.56
-0.33,0.09,1.04,-6.28,-9.93,-88.05
-0.4,0.21,1.06,-5.26,-11.39,-87.17
-0.37,0.14,0.96,-5.55,-13.18,-88.22
-0.34,0.04,0.9,-4.27,-14.46,-89.34
-0.33,0.02,0.94,-1.5,-15.31,-89.18
-0.33,0.02,0.94,-1.5,-15.31,-89.18
-0.33,0.05,0.93,2.14,-15.74,-87.56
-0.36,0.09,0.92,6.58,-15.58,-84.93
-0.38,0.12,0.94,11.15,-15.42,-82.4
-0.38,0.15,0.95,15.15,-15.44,-80.38
-0.36,0.17,0.93,18.45,-15.4,-78.46
-0.36,0.17,0.93,18.45,-15.4,-78.46
-0.36,0.19,0.95,21.37,-15.2,-76.27
-0.35,0.2,0.96,23.57,-14.87,-74.1
-0.34,0.21,0.95,24.99,-14.38,-72.12
-0.35,0.22,0.94,25.88,-13.49,-70.32
-0.36,0.21,0.92,26.55,-12.29,-68.44
-0.36,0.21,0.92,26.55,-12.29,-68.44
-0.37,0.21,0.92,27.4,-10.87,-66.82
-0.35,0.2,0.92,28.1,-9.56,-65.58
-0.35,0.21,0.91,28.98,-7.88,-63.73
-0.38,0.23,0.94,29.62,-6.33,-61.64
-0.39,0.26,0.95,29.5,-5.14,-59.98
-0.39,0.26,0.95,29.5,-5.14,-59.98
-0.4,0.27,0.95,28.43,-4.34,-58.84
-0.39,0.27,0.94,26.32,-4.12,-58.13
-0.38,0.26,0.94,23.47,-4.19,-57.52
-0.38,0.25,0.93,20.29,-4.47,-56.89
-0.38,0.26,0.93,16.9,-4.92,-56.41
-0.38,0.26,0.93,16.9,-4.92,-56.41
-0.38,0.25,0.92,13.26,-5.47,-56.24
-0.36,0.23,0.91,9.52,-6.07,-56.21
-0.35,0.2,0.89,5.96,-6.57,-56.09
-0.34,0.17,0.87,3.04,-6.93,-55.56
-0.3,0.12,0.85,1.48,-6.92,-54.29
-0.3,0.12,0.85,1.48,-6.92,-54.29
-0.36,0.2,0.89,0.91,-6.48,-51.75
-0.34,0.17,0.87,0.4,-6.4,-50.02
-0.33,0.14,0.84,0.63,-5.95,-47.83
-0.35,0.12,0.86,1.7,-5.28,-45.05
-0.34,0.13,0.88,3.38,-4.57,-42.48
-0.34,0.13,0.88,3.38,-4.57,-42.48
-0.34,0.16,0.89,5.0,-3.78,-39.97
-0.35,0.18,0.9,6.05,-3.03,-37.33
-0.36,0.16,0.88,6.56,-2.27,-34.77
-0.37,0.13,0.86,7.22,-1.44,-32.26
-0.37,0.12,0.87,8.58,-0.45,-29.72
-0.37,0.12,0.87,8.58,-0.45,-29.72
-0.38,0.14,0.88,10.47,0.61,-27.26
-0.4,0.16,0.89,12.4,1.58,-25.02
-0.42,0.17,0.89,14.1,2.28,-23.11
-0.43,0.18,0.9,15.42,2.67,-21.57
-0.43,0.19,0.9,16.2,2.8,-20.33
-0.43,0.19,0.9,16.2,2.8,-20.33
-0.43,0.2,0.91,16.3,2.81,-19.31
-0.42,0.21,0.91,15.73,2.74,-18.44
-0.42,0.21,0.9,14.57,2.58,-17.66
-0.42,0.2,0.9,13.03,2.32,-16.8
-0.42,0.19,0.9,11.21,2.02,-15.75
-0.42,0.19,0.9,11.21,2.02,-15.75
-0.43,0.18,0.9,9.12,1.69,-14.57
-0.43,0.16,0.89,6.91,1.34,-13.37
-0.43,0.14,0.89,4.81,1.02,-12.2
-0.43,0.12,0.89,2.97,0.74,-11.12
-0.43,0.11,0.89,1.54,0.56,-10.13
-0.43,0.11,0.89,1.54,0.56,-10.13
-0.44,0.1,0.89,0.49,0.42,-9.21
-0.44,0.09,0.89,-0.21,0.25,-8.3
-0.44,0.09,0.89,-0.6,0.0,-7.42
-0.44,0.08,0.88,-0.66,-0.29,-6.56
-0.43,0.07,0.88,-0.41,-0.6,-5.73
-0.43,0.07,0.88,-0.41,-0.6,-5.73
-0.43,0.07,0.88,0.06,-0.85,-4.85
-0.43,0.07,0.88,0.7,-1.15,-4.02
-0.43,0.08,0.88,1.41,-1.51,-3.28
-0.44,0.08,0.88,2.13,-1.96,-2.71
-0.44,0.09,0.88,2.81,-2.43,-2.33
-0.44,0.09,0.88,2.81,-2.43,-2.33
-0.43,0.09,0.88,3.38,-2.86,-2.09
-0.43,0.09,0.89,3.81,-3.25,-1.84
-0.43,0.1,0.89,4.03,-3.58,-1.54
-0.44,0.1,0.89,4.03,-3.88,-1.17
-0.44,0.11,0.9,3.75,-4.26,-0.67
-0.44,0.11,0.9,3.75,-4.26,-0.67
-0.44,0.11,0.9,3.15,-4.84,-0.08
-0.45,0.1,0.89,2.24,-5.59,0.6
-0.45,0.1,0.89,1.25,-6.47,1.28
-0.45,0.08,0.88,0.42,-7.36,1.84
-0.45,0.08,0.88,-0.07,-8.17,2.27
-0.45,0.08,0.88,-0.07,-8.17,2.27
-0.44,0.07,0.88,-0.18,-8.86,2.58
-0.44,0.07,0.88,0.01,-9.4,2.76
-0.44,0.08,0.88,0.31,-9.72,2.84
-0.44,0.08,0.88,0.62,-9.85,2.84
-0.44,0.08,0.88,0.9,-9.8,2.8
-0.44,0.08,0.88,0.9,-9.8,2.8
-0.45,0.08,0.87,1.19,-9.63,2.77
-0.45,0.07,0.87,1.56,-9.3,2.74
-0.45,0.07,0.87,2.03,-8.86,2.7
-0.45,0.08,0.87,2.59,-8.41,2.76
-0.45,0.08,0.87,3.17,-8.09,2.92
-0.45,0.08,0.87,3.17,-8.09,2.92
