ax,ay,az,gx,gy,gz
-0.07,0.16,0.97,-2.1,-4.21,-0.46
-0.07,0.16,0.97,-2.1,-4.21,-0.46
-0.09,0.16,0.97,-2.68,-3.48,-0.8
-0.1,0.17,0.97,-3.31,-2.78,-1.17
-0.11,0.17,0.97,-3.91,-2.15,-1.55
-0.12,0.17,0.98,-4.39,-1.73,-1.91
-0.12,0.18,0.98,-4.76,-1.53,-2.19
-0.12,0.18,0.98,-4.76,-1.53,-2.19
-0.12,0.18,0.98,-5.07,-1.57,-2.3
-0.11,0.17,0.97,-5.29,-1.77,-2.34
-0.11,0.17,0.97,-5.35,-2.13,-2.3
-0.11,0.17,0.97,-5.16,-2.65,-2.2
-0.1,0.18,0.97,-4.77,-3.24,-2.04
-0.1,0.18,0.97,-4.77,-3.24,-2.04
-0.1,0.19,0.98,-4.25,-3.78,-1.88
-0.09,0.19,0.98,-3.84,-4.18,-1.75
-0.09,0.19,0.98,-3.6,-4.38,-1.66
-0.08,0.19,0.98,-3.51,-4.29,-1.65
-0.07,0.19,0.98,-3.51,-3.84,-1.71
-0.07,0.19,0.98,-3.51,-3.84,-1.71
-0.08,0.19,0.97,-3.56,-3.06,-1.81
-0.08,0.18,0.97,-3.66,-2.09,-1.89
-0.08,0.18,0.96,-3.74,-1.09,-1.94
-0.09,0.18,0.96,-3.78,-0.18,-1.95
-0.09,0.17,0.96,-3.75,0.58,-1.95
-0.09,0.17,0.96,-3.75,0.58,-1.95
-0.09,0.18,0.97,-3.6,1.22,-1.94
-0.09,0.18,0.97,-3.38,1.76,-1.92
-0.09,0.18,0.98,-3.13,2.17,-1.81
-0.09,0.19,0.98,-2.9,2.4,-1.62
-0.1,0.19,0.98,-2.72,2.39,-1.3
-0.1,0.19,0.98,-2.72,2.39,-1.3
-0.1,0.19,0.99,-2.65,2.13,-0.89
-0.1,0.19,1.0,-2.73,1.71,-0.52
-0.1,0.19,1.0,-2.94,1.21,-0.2
-0.1,0.18,1.0,-3.2,0.69,0.07
-0.09,0.18,0.99,-3.49,0.22,0.32
-0.09,0.18,0.99,-3.49,0.22,0.32
-0.07,0.18,0.99,-3.85,-0.11,0.49
-0.07,0.18,0.99,-4.35,-0.24,0.63
-0.06,0.17,0.98,-4.87,-0.16,0.77
-0.07,0.16,0.97,-5.26,0.08,0.93
-0.07,0.15,0.97,-5.45,0.4,1.09
-0.07,0.15,0.97,-5.45,0.4,1.09
-0.07,0.14,0.97,-5.45,0.71,1.26
-0.06,0.14,0.96,-5.32,0.94,1.41
-0.06,0.15,0.97,-5.03,1.14,1.58
-0.06,0.15,0.97,-4.62,1.34,1.73
-0.06,0.15,0.98,-4.17,1.49,1.83
-0.06,0.15,0.98,-4.17,1.49,1.83
-0.06,0.16,0.98,-3.81,1.57,1.88
-0.06,0.16,0.99,-3.68,1.59,1.87
-0.06,0.16,0.99,-3.73,1.53,1.79
-0.07,0.15,0.99,-3.89,1.45,1.73
-0.07,0.15,0.99,-4.09,1.29,1.7
-0.07,0.15,0.99,-4.09,1.29,1.7
-0.07,0.14,0.99,-4.3,1.03,1.7
-0.07,0.14,0.99,-4.45,0.75,1.66
-0.07,0.13,0.99,-4.52,0.48,1.55
-0.07,0.13,0.99,-4.49,0.23,1.44
-0.07,0.13,0.99,-4.32,-0.03,1.37
-0.07,0.13,0.99,-4.32,-0.03,1.37
-0.07,0.13,0.99,-4.08,-0.28,1.33
-0.07,0.13,0.99,-3.83,-0.53,1.31
-0.07,0.13,0.98,-3.55,-0.73,1.27
-0.06,0.12,0.98,-3.21,-0.84,1.2
-0.06,0.12,0.98,-2.77,-0.87,1.18
-0.06,0.12,0.98,-2.77,-0.87,1.18
-0.06,0.12,0.98,-2.28,-0.9,1.15
-0.06,0.12,0.98,-1.79,-0.98,1.11
-0.06,0.12,0.98,-1.32,-1.16,1.02
-0.06,0.13,0.97,-0.93,-1.47,0.85
-0.06,0.13,0.97,-0.64,-1.87,0.68
-0.06,0.13,0.97,-0.64,-1.87,0.68
-0.05,0.13,0.97,-0.49,-2.32,0.51
-0.04,0.13,0.97,-0.51,-2.73,0.26
-0.04,0.13,0.97,-0.74,-3.05,-0.03
-0.04,0.13,0.96,-1.02,-3.19,-0.3
-0.05,0.13,0.96,-1.25,-3.15,-0.57
-0.05,0.13,0.96,-1.25,-3.15,-0.57
-0.06,0.13,0.96,-1.39,-2.98,-0.82
-0.06,0.13,0.96,-1.51,-2.8,-1.11
-0.06,0.13,0.97,-1.64,-2.67,-1.36
-0.05,0.13,0.97,-1.81,-2.57,-1.52
-0.06,0.13,0.96,-1.9,-2.48,-1.62
-0.06,0.13,0.96,-1.9,-2.48,-1.62
-0.06,0.13,0.96,-1.78,-2.36,-1.67
-0.06,0.13,0.96,-1.46,-2.25,-1.64
-0.06,0.14,0.96,-1.01,-2.16,-1.61
-0.07,0.15,0.96,-0.54,-2.14,-1.58
-0.07,0.15,0.97,-0.14,-2.19,-1.53
-0.07,0.15,0.97,-0.14,-2.19,-1.53
-0.07,0.16,0.97,0.01,-2.32,-1.44
-0.07,0.16,0.97,-0.12,-2.54,-1.36
-0.07,0.16,0.97,-0.54,-2.9,-1.35
-0.07,0.15,0.97,-1.12,-3.35,-1.37
-0.06,0.15,0.97,-1.75,-3.78,-1.46
-0.06,0.15,0.97,-1.75,-3.78,-1.46
-0.05,0.15,0.97,-2.39,-4.02,-1.57
-0.05,0.14,0.97,-2.97,-4.03,-1.7
-0.05,0.14,0.97,-3.49,-3.81,-1.83
-0.06,0.13,0.97,-3.82,-3.4,-1.97
-0.06,0.13,0.97,-3.94,-2.88,-2.07
-0.06,0.13,0.97,-3.94,-2.88,-2.07
-0.07,0.13,0.97,-3.82,-2.31,-2.14
-0.07,0.13,0.97,-3.52,-1.8,-2.14
-0.07,0.14,0.97,-3.07,-1.45,-2.04
-0.07,0.15,0.97,-2.59,-1.26,-1.87
-0.06,0.15,0.98,-2.15,-1.2,-1.65
-0.06,0.15,0.98,-2.15,-1.2,-1.65
-0.06,0.16,0.98,-1.8,-1.19,-1.37
-0.07,0.16,0.98,-1.56,-1.31,-1.03
-0.07,0.16,0.98,-1.5,-1.52,-0.7
-0.07,0.15,0.99,-1.63,-1.84,-0.45
-0.07,0.15,0.99,-1.97,-2.22,-0.27
-0.06,0.15,0.99,-1.97,-2.22,-0.27
-0.06,0.14,0.99,-2.37,-2.57,-0.1
-0.06,0.13,0.98,-2.71,-2.9,0.06
-0.07,0.13,0.99,-2.96,-3.21,0.21
-0.07,0.12,0.98,-3.17,-3.54,0.29
-0.07,0.12,0.98,-3.34,-3.85,0.21
-0.07,0.12,0.98,-3.34,-3.85,0.21
-0.06,0.11,0.98,-3.42,-4.0,0.04
-0.05,0.11,0.99,-3.33,-3.88,-0.12
-0.05,0.1,0.99,-3.13,-3.49,-0.22
-0.06,0.1,1.0,-2.93,-2.9,-0.23
-0.06,0.1,1.0,-2.93,-2.9,-0.23
-0.07,0.09,1.01,-2.7,-2.2,-0.27
-0.09,0.07,1.01,-2.43,-1.5,-0.4
-0.09,0.07,1.01,-2.1,-0.9,-0.57
-0.09,0.06,1.01,-1.64,-0.44,-0.84
-0.09,0.06,1.02,-1.05,-0.17,-1.16
-0.09,0.06,1.02,-1.05,-0.17,-1.16
-0.1,0.07,1.01,-0.43,-0.15,-1.49
-0.1,0.07,1.01,0.12,-0.43,-1.84
-0.09,0.07,1.02,0.5,-0.98,-2.2
-0.07,0.07,1.02,0.65,-1.61,-2.55
-0.06,0.06,1.02,0.59,-2.1,-2.89
-0.06,0.06,1.02,0.59,-2.1,-2.89
-0.07,0.05,1.03,0.41,-2.39,-3.22
-0.08,0.04,1.03,0.16,-2.44,-3.58
-0.08,0.02,1.04,-0.18,-2.34,-3.99
-0.09,0.01,1.03,-0.52,-2.14,-4.51
-0.09,-0.0,1.03,-0.72,-1.85,-5.22
-0.09,-0.0,1.03,-0.72,-1.85,-5.22
-0.1,-0.01,1.02,-0.64,-1.6,-6.11
-0.1,-0.0,1.01,-0.28,-1.48,-7.08
-0.1,0.01,1.01,0.24,-1.55,-8.01
-0.1,0.02,1.02,0.7,-1.83,-8.91
-0.1,0.03,1.01,0.97,-2.23,-9.79
-0.1,0.03,1.01,0.97,-2.23,-9.79
-0.1,0.02,1.01,0.98,-2.75,-10.6
-0.09,0.02,1.0,0.76,-3.36,-11.31
-0.09,0.01,1.01,0.44,-3.9,-11.94
-0.09,0.0,1.01,0.14,-4.24,-12.68
-0.1,-0.01,1.0,-0.09,-4.35,-13.58
-0.1,-0.01,1.0,-0.09,-4.35,-13.58
-0.12,-0.01,0.98,-0.16,-4.31,-14.65
-0.14,-0.01,0.97,-0.13,-4.21,-15.84
-0.17,-0.02,0.95,-0.07,-4.21,-17.05
-0.16,-0.01,0.94,-0.1,-4.42,-18.16
-0.13,-0.0,0.96,-0.34,-4.67,-19.18
-0.13,-0.0,0.96,-0.34,-4.67,-19.18
-0.1,-0.0,0.97,-0.95,-4.67,-20.12
-0.09,-0.01,0.96,-1.94,-4.24,-21.02
-0.11,-0.02,0.96,-3.19,-3.51,-21.95
-0.12,-0.03,0.96,-4.55,-2.73,-23.0
-0.12,-0.04,0.97,-5.96,-2.07,-24.22
-0.12,-0.04,0.97,-5.96,-2.07,-24.22
-0.11,-0.05,0.98,-7.42,-1.63,-25.61
-0.09,-0.07,0.98,-8.93,-1.36,-27.11
-0.07,-0.07,0.98,-10.29,-1.16,-28.7
-0.07,-0.09,0.99,-11.3,-0.92,-30.33
-0.06,-0.1,0.99,-11.84,-0.64,-31.96
-0.06,-0.1,0.99,-11.84,-0.64,-31.96
-0.06,-0.1,1.0,-11.9,-0.27,-33.6
-0.06,-0.1,1.0,-11.51,0.07,-35.3
-0.06,-0.1,1.01,-10.7,0.32,-37.1
-0.05,-0.1,1.02,-9.64,0.36,-38.92
-0.04,-0.09,1.02,-8.45,0.19,-40.76
-0.04,-0.09,1.02,-8.45,0.19,-40.76
-0.03,-0.08,1.02,-7.18,-0.13,-42.64
-0.02,-0.07,1.02,-5.83,-0.61,-44.52
-0.01,-0.06,1.02,-4.47,-1.39,-46.38
0.0,-0.05,1.02,-3.29,-2.36,-48.17
0.02,-0.04,1.03,-2.31,-3.37,-49.8
0.02,-0.04,1.03,-2.31,-3.37,-49.8
0.05,-0.03,1.04,-1.69,-4.44,-51.22
0.05,-0.02,1.06,-1.39,-5.14,-52.47
0.04,-0.0,1.07,-1.14,-5.09,-53.75
0.03,0.02,1.08,-0.85,-4.31,-55.16
0.01,0.05,1.08,-0.6,-3.03,-56.62
0.01,0.05,1.08,-0.6,-3.03,-56.62
-0.0,0.08,1.08,-0.51,-1.61,-58.13
-0.01,0.12,1.09,-0.64,-0.42,-59.68
-0.02,0.14,1.09,-1.11,0.33,-61.12
-0.02,0.16,1.09,-1.94,0.47,-62.24
-0.02,0.17,1.09,-3.15,-0.0,-63.0
-0.02,0.17,1.09,-3.15,-0.0,-63.0
-0.01,0.17,1.11,-4.62,-1.09,-63.35
0.01,0.16,1.12,-6.37,-2.66,-63.11
0.0,0.16,1.12,-8.35,-4.44,-62.22
-0.01,0.17,1.12,-10.34,-6.27,-61.09
-0.01,0.17,1.12,-12.06,-8.03,-60.06
-0.01,0.17,1.12,-12.06,-8.03,-60.06
-0.01,0.19,1.13,-13.62,-9.58,-59.01
-0.01,0.23,1.15,-15.27,-10.74,-57.85
-0.01,0.27,1.16,-17.23,-11.39,-56.83
-0.01,0.28,1.18,-19.9,-11.8,-56.03
-0.02,0.27,1.17,-23.85,-12.42,-55.15
-0.02,0.27,1.17,-23.85,-12.42,-55.15
-0.04,0.25,1.15,-29.38,-13.62,-54.3
-0.04,0.2,1.12,-36.05,-15.49,-54.18
-0.0,0.11,1.09,-42.96,-17.91,-55.2
0.05,0.02,1.04,-49.07,-20.41,-56.99
0.1,-0.06,0.99,-53.4,-22.51,-58.95
0.1,-0.06,0.99,-53.4,-22.51,-58.95
0.14,-0.14,0.95,-55.22,-24.05,-60.76
0.16,-0.22,0.93,-54.11,-24.83,-62.08
0.16,-0.27,0.91,-49.64,-24.72,-62.75
0.14,-0.28,0.88,-41.46,-23.74,-62.84
0.11,-0.23,0.87,-29.52,-22.15,-62.38
0.11,-0.23,0.87,-29.52,-22.15,-62.38
0.07,-0.11,0.9,-14.11,-20.28,-61.4
0.04,0.05,0.96,3.51,-18.21,-60.09
0.02,0.21,1.03,21.33,-16.15,-58.76
0.02,0.34,1.08,37.34,-14.44,-57.31
0.03,0.42,1.11,50.17,-13.51,-55.35
0.03,0.42,1.11,50.17,-13.51,-55.35
0.03,0.47,1.12,59.04,-13.61,-52.7
0.05,0.48,1.11,63.88,-14.81,-49.49
0.08,0.46,1.07,65.26,-17.0,-45.91
0.11,0.42,1.02,64.39,-19.79,-42.16
0.14,0.39,0.98,62.77,-22.73,-38.33
0.14,0.39,0.98,62.77,-22.73,-38.33
0.17,0.37,0.95,61.49,-25.45,-34.5
0.19,0.38,0.95,60.96,-27.68,-30.68
0.19,0.41,0.97,61.07,-29.16,-26.91
0.17,0.45,0.99,61.34,-29.73,-23.37
0.15,0.49,1.01,61.3,-29.38,-20.24
0.15,0.49,1.01,61.3,-29.38,-20.24
0.13,0.51,1.01,60.6,-28.34,-17.45
0.12,0.51,1.01,58.89,-27.01,-14.77
0.12,0.5,1.01,56.04,-25.78,-12.01
0.13,0.48,0.99,52.16,-24.83,-9.12
0.13,0.46,0.97,47.75,-24.19,-6.29
0.13,0.46,0.97,47.75,-24.19,-6.29
0.15,0.43,0.96,43.31,-23.81,-3.61
0.16,0.39,0.96,39.15,-23.7,-0.96
0.17,0.36,0.95,35.36,-23.84,1.81
0.15,0.35,0.94,32.26,-24.14,4.58
0.1,0.36,0.94,30.25,-24.32,7.12
0.1,0.36,0.94,30.25,-24.32,7.12
0.05,0.41,0.95,29.65,-24.09,9.11
0.02,0.48,0.97,30.08,-23.42,10.32
0.0,0.55,0.99,30.49,-22.59,10.83
-0.01,0.6,1.0,29.75,-21.98,11.02
-0.01,0.61,1.0,27.23,-21.73,11.12
-0.01,0.61,1.0,27.23,-21.73,11.12
0.0,0.6,0.99,22.93,-21.95,11.35
0.01,0.55,0.96,17.4,-22.64,11.87
0.03,0.49,0.93,11.41,-23.51,12.73
0.04,0.44,0.9,5.94,-24.35,13.79
0.05,0.39,0.86,1.9,-24.97,14.88
0.05,0.39,0.86,1.9,-24.97,14.88
0.06,0.36,0.82,-0.19,-25.38,16.09
0.06,0.35,0.8,-0.27,-25.62,17.46
0.05,0.37,0.79,1.42,-25.79,18.98
0.03,0.41,0.79,4.41,-25.91,20.51
0.0,0.48,0.81,8.25,-26.07,22.0
0.0,0.48,0.81,8.25,-26.07,22.0
-0.04,0.56,0.85,12.28,-26.29,23.46
-0.08,0.66,0.89,15.7,-26.53,24.71
-0.11,0.74,0.93,17.6,-26.78,25.62
-0.12,0.79,0.94,16.95,-27.45,25.99
-0.12,0.81,0.93,13.22,-28.93,25.95
-0.12,0.81,0.93,13.22,-28.93,25.95
-0.1,0.79,0.91,6.67,-31.21,25.89
-0.05,0.73,0.89,-2.01,-33.83,26.02
-0.0,0.63,0.87,-11.98,-36.3,26.64
0.04,0.54,0.84,-22.1,-38.1,27.87
0.08,0.46,0.82,-31.17,-38.79,29.72
0.08,0.46,0.82,-31.17,-38.79,29.72
0.1,0.37,0.81,-38.35,-38.08,32.07
0.09,0.3,0.81,-43.23,-36.04,34.75
0.07,0.25,0.79,-45.52,-32.99,37.64
0.03,0.21,0.78,-45.16,-29.33,40.61
-0.0,0.2,0.78,-42.45,-25.58,43.28
-0.0,0.2,0.78,-42.45,-25.58,43.28
-0.03,0.2,0.81,-38.02,-22.29,45.34
-0.04,0.21,0.85,-32.65,-19.63,46.74
-0.04,0.23,0.87,-27.13,-17.54,47.46
-0.03,0.27,0.87,-21.91,-15.87,47.41
-0.02,0.31,0.86,-17.24,-14.6,46.55
-0.02,0.31,0.86,-17.24,-14.6,46.55
-0.01,0.33,0.87,-13.34,-13.62,45.01
0.01,0.33,0.88,-10.55,-12.84,43.14
0.02,0.33,0.89,-9.23,-12.03,41.33
0.03,0.32,0.87,-9.42,-10.88,39.7
0.04,0.31,0.85,-10.63,-9.02,38.14
0.04,0.31,0.85,-10.63,-9.02,38.14
0.05,0.29,0.85,-12.13,-6.21,36.49
0.06,0.28,0.85,-13.51,-2.19,34.91
0.06,0.29,0.85,-14.53,3.05,33.65
0.03,0.3,0.85,-15.05,9.26,32.8
-0.01,0.31,0.85,-15.11,15.87,32.24
-0.01,0.31,0.85,-15.11,15.87,32.24
-0.06,0.31,0.84,-14.94,22.19,31.98
-0.11,0.3,0.84,-14.83,27.46,32.08
-0.14,0.28,0.84,-14.98,31.19,32.53
-0.15,0.26,0.84,-15.31,33.19,33.2
-0.15,0.24,0.84,-15.44,33.73,34.11
-0.15,0.24,0.84,-15.44,33.73,34.11
-0.14,0.23,0.85,-15.11,33.21,35.31
-0.12,0.21,0.86,-14.14,32.03,36.75
-0.11,0.21,0.87,-12.55,30.6,38.41
-0.11,0.21,0.9,-10.44,29.27,40.19
-0.13,0.22,0.89,-8.09,28.32,42.25
-0.13,0.22,0.89,-8.09,28.32,42.25
-0.15,0.26,0.92,-5.32,27.59,43.77
-0.14,0.26,0.92,-3.28,27.29,43.95
-0.15,0.23,0.9,-1.37,27.22,44.48
-0.13,0.19,0.88,1.15,28.12,44.87
-0.13,0.18,0.89,3.99,30.0,45.05
-0.13,0.18,0.89,3.99,30.0,45.05
-0.14,0.2,0.9,6.59,32.47,45.13
-0.17,0.22,0.91,8.52,35.27,45.08
-0.19,0.23,0.88,9.53,37.93,44.98
-0.19,0.23,0.85,9.71,40.16,44.44
-0.2,0.21,0.84,9.62,42.05,43.58
-0.2,0.21,0.84,9.62,42.05,43.58
-0.21,0.19,0.84,9.42,43.48,42.6
-0.2,0.17,0.84,9.33,44.29,41.93
-0.21,0.17,0.83,9.8,44.48,42.47
-0.24,0.18,0.84,10.67,43.92,44.68
-0.3,0.22,0.83,11.38,42.08,48.23
-0.3,0.22,0.83,11.38,42.08,48.23
-0.35,0.26,0.83,11.51,38.58,51.97
-0.36,0.28,0.82,10.85,33.61,54.86
-0.33,0.29,0.8,9.46,27.71,56.58
-0.28,0.29,0.82,7.54,21.54,57.42
-0.21,0.29,0.84,5.03,15.77,57.82
-0.21,0.29,0.84,5.03,15.77,57.82
-0.16,0.28,0.87,1.94,11.24,58.18
-0.12,0.26,0.89,-1.69,8.39,58.99
-0.12,0.24,0.91,-5.9,7.3,60.12
-0.15,0.2,0.91,-10.78,7.69,61.35
-0.19,0.16,0.9,-16.22,9.13,62.4
-0.19,0.16,0.9,-16.22,9.13,62.4
-0.24,0.11,0.88,-21.8,11.05,62.82
-0.26,0.05,0.86,-26.89,13.16,62.46
-0.27,0.0,0.83,-30.86,15.16,61.62
-0.28,-0.01,0.8,-33.23,16.87,60.88
-0.3,-0.01,0.79,-33.87,17.93,60.64
-0.3,-0.01,0.79,-33.87,17.93,60.64
-0.3,0.01,0.79,-33.1,18.01,60.98
-0.32,0.03,0.8,-31.55,16.93,61.88
-0.33,0.04,0.81,-29.85,14.68,63.12
-0.32,0.03,0.83,-28.46,11.33,64.54
-0.29,0.01,0.85,-27.5,7.11,66.08
-0.29,0.01,0.85,-27.5,7.11,66.08
-0.28,-0.04,0.86,-26.72,2.62,67.61
-0.27,-0.07,0.89,-25.4,-1.35,68.83
-0.26,-0.1,0.91,-23.49,-4.21,69.04
-0.26,-0.11,0.91,-21.13,-5.95,68.39
-0.26,-0.07,0.93,-18.78,-6.88,67.16
-0.26,-0.07,0.93,-18.78,-6.88,67.16
-0.26,-0.1,0.87,-17.73,-7.79,65.81
-0.25,-0.15,0.82,-15.78,-8.79,64.94
-0.22,-0.13,0.84,-11.34,-8.39,62.83
-0.15,-0.04,0.87,-5.97,-7.29,59.26
-0.11,0.06,0.88,-1.76,-6.34,56.2
-0.11,0.06,0.88,-1.76,-6.34,56.2
-0.09,0.1,0.89,0.09,-5.98,54.06
-0.07,0.09,0.88,-0.25,-6.16,52.74
-0.04,0.04,0.89,-1.58,-6.39,52.26
-0.02,-0.01,0.93,-2.64,-5.91,52.42
-0.02,-0.04,0.97,-3.2,-4.38,53.25
-0.02,-0.04,0.97,-3.2,-4.38,53.25
-0.06,-0.06,1.01,-4.11,-2.25,54.68
-0.13,-0.07,1.02,-6.24,-0.31,55.93
-0.18,-0.12,1.01,-9.71,0.77,56.37
-0.18,-0.21,1.0,-13.92,0.81,56.06
-0.15,-0.29,1.0,-17.94,0.02,55.25
-0.15,-0.29,1.0,-17.94,0.02,55.25
-0.12,-0.34,1.0,-20.96,-0.97,54.02
-0.07,-0.36,1.0,-22.34,-1.6,52.36
-0.04,-0.35,1.0,-21.71,-1.39,50.42
-0.03,-0.32,1.02,-19.35,-0.35,48.33
-0.02,-0.26,1.05,-16.1,1.21,46.22
-0.02,-0.26,1.05,-16.1,1.21,46.22
-0.02,-0.19,1.08,-13.09,2.86,44.2
-0.01,-0.15,1.12,-11.21,4.28,42.35
-0.02,-0.14,1.15,-10.86,5.38,40.73
-0.02,-0.17,1.16,-12.0,6.04,39.23
-0.01,-0.22,1.15,-14.12,6.11,37.67
-0.01,-0.22,1.15,-14.12,6.11,37.67
0.02,-0.28,1.13,-16.37,5.91,36.2
0.01,-0.33,1.13,-17.83,5.75,35.04
-0.01,-0.35,1.11,-17.98,5.98,33.88
-0.04,-0.35,1.09,-16.72,6.53,32.46
-0.07,-0.34,1.08,-14.37,7.16,30.53
-0.07,-0.34,1.08,-14.37,7.16,30.53
-0.08,-0.3,1.07,-11.32,7.57,28.09
-0.07,-0.25,1.07,-7.91,7.83,25.48
-0.06,-0.21,1.07,-4.79,7.84,22.97
-0.05,-0.15,1.07,-2.51,7.5,20.69
-0.02,-0.12,1.06,-1.14,6.92,18.7
-0.02,-0.12,1.06,-1.14,6.92,18.7
-0.0,-0.09,1.07,-0.54,6.34,17.15
0.0,-0.06,1.07,-0.72,6.02,16.09
-0.0,-0.04,1.07,-1.78,5.83,15.38
-0.02,-0.03,1.07,-3.84,5.74,14.86
-0.05,-0.03,1.07,-6.78,5.75,14.36
-0.05,-0.03,1.07,-6.78,5.75,14.36
-0.05,-0.06,1.07,-10.25,5.86,13.71
-0.02,-0.13,1.06,-13.72,6.1,13.12
0.01,-0.2,1.08,-16.72,6.57,13.03
-0.01,-0.26,1.1,-18.97,7.46,13.4
-0.03,-0.32,1.08,-20.07,8.69,13.76
-0.03,-0.32,1.08,-20.07,8.69,13.76
-0.05,-0.37,1.05,-19.66,10.04,13.67
-0.04,-0.39,1.03,-17.45,11.06,13.01
-0.04,-0.39,1.04,-13.66,11.76,12.03
-0.04,-0.34,1.05,-8.84,12.19,10.62
-0.03,-0.28,1.04,-3.85,12.35,8.65
-0.03,-0.28,1.04,-3.85,12.35,8.65
-0.0,-0.22,1.04,0.75,12.01,6.26
0.02,-0.16,1.04,4.49,11.2,3.66
0.04,-0.1,1.05,7.24,10.15,1.27
0.04,-0.07,1.06,8.74,9.01,-0.85
0.06,-0.06,1.07,8.84,7.7,-2.75
0.06,-0.06,1.07,8.84,7.7,-2.75
0.1,-0.09,1.09,7.55,6.34,-4.39
0.13,-0.13,1.1,5.27,5.15,-5.64
0.15,-0.19,1.1,2.61,4.39,-6.74
0.15,-0.24,1.08,0.43,4.25,-7.74
0.15,-0.24,1.08,-0.78,4.64,-8.81
0.14,-0.27,1.07,-0.78,4.64,-8.81
0.15,-0.29,1.06,-0.98,5.12,-10.1
0.15,-0.29,1.05,-0.43,5.41,-11.59
0.15,-0.28,1.03,0.63,5.38,-13.13
0.14,-0.27,1.02,2.12,5.04,-14.72
0.14,-0.27,1.02,4.06,4.47,-16.54
0.13,-0.25,1.0,4.06,4.47,-16.54
0.12,-0.22,1.0,6.46,3.78,-18.68
0.1,-0.17,1.0,9.13,3.01,-21.09
0.1,-0.11,1.01,11.63,2.12,-23.74
0.11,-0.07,1.02,13.42,1.0,-26.58
0.11,-0.07,1.02,13.42,1.0,-26.58
0.13,-0.04,1.02,14.18,-0.45,-29.48
0.15,-0.02,1.02,13.88,-2.14,-32.27
0.17,-0.02,1.02,12.79,-3.76,-34.91
0.17,-0.02,1.01,11.3,-5.05,-37.43
0.17,-0.02,1.0,9.7,-5.9,-39.82
0.17,-0.02,1.0,9.7,-5.9,-39.82
0.17,-0.02,0.98,8.25,-6.41,-42.05
0.17,-0.03,0.96,7.1,-6.69,-44.11
0.18,-0.03,0.96,6.39,-6.73,-45.98
0.19,-0.02,0.95,6.27,-6.39,-47.51
0.19,-0.01,0.94,6.75,-5.66,-48.57
0.19,-0.01,0.94,6.75,-5.66,-48.57
0.19,-0.0,0.93,7.68,-4.83,-49.19
0.19,0.0,0.93,8.91,-4.08,-49.41
0.18,0.02,0.92,10.49,-3.46,-49.34
0.18,0.03,0.91,12.53,-3.01,-49.11
0.18,0.06,0.9,14.92,-2.86,-48.8
0.18,0.06,0.9,14.92,-2.86,-48.8
0.18,0.09,0.9,17.47,-3.07,-48.41
0.19,0.12,0.9,19.94,-3.73,-47.85
0.2,0.15,0.91,22.0,-4.76,-47.1
0.21,0.18,0.92,23.3,-6.17,-46.18
0.22,0.2,0.92,23.66,-7.73,-45.16
0.22,0.2,0.92,23.66,-7.73,-45.16
0.22,0.22,0.94,23.02,-9.11,-44.17
0.21,0.23,0.96,21.47,-9.94,-43.46
0.2,0.23,0.96,19.07,-10.01,-43.34
0.19,0.23,0.97,15.87,-9.12,-43.93
0.19,0.22,0.98,12.32,-7.25,-45.12
0.19,0.22,0.98,12.32,-7.25,-45.12
0.18,0.21,0.99,8.81,-4.47,-46.56
0.15,0.2,0.99,5.64,-0.97,-48.08
0.12,0.19,0.99,3.18,2.96,-49.54
0.09,0.2,0.99,1.8,7.05,-50.85
0.05,0.22,1.01,1.56,11.05,-51.85
0.05,0.22,1.01,1.56,11.05,-51.85
0.02,0.25,1.02,2.31,14.58,-52.61
-0.02,0.3,1.04,3.59,17.41,-53.11
-0.05,0.34,1.05,4.83,19.2,-53.22
-0.06,0.37,1.07,5.71,19.63,-52.98
-0.06,0.37,1.08,6.14,18.88,-52.29
-0.06,0.37,1.08,6.14,18.88,-52.29
-0.06,0.37,1.07,6.18,17.22,-51.19
-0.05,0.37,1.07,5.96,14.78,-49.73
-0.03,0.36,1.07,5.58,11.88,-47.96
-0.01,0.34,1.07,4.99,8.82,-45.83
0.01,0.33,1.07,4.15,5.83,-43.33
0.01,0.33,1.07,4.15,5.83,-43.33
0.03,0.32,1.05,3.11,3.19,-40.6
0.05,0.29,1.04,2.14,1.19,-37.82
