ax,ay,az,gx,gy,gz
-0.0,-0.62,0.75,4.57,-1.19,0.87
-0.0,-0.62,0.75,4.4,-1.2,0.84
-0.01,-0.62,0.74,4.0,-0.75,0.73
-0.02,-0.62,0.74,3.47,-0.12,0.59
-0.02,-0.62,0.73,2.8,0.6,0.38
-0.02,-0.61,0.73,2.04,1.34,0.17
-0.02,-0.61,0.73,2.04,1.34,0.17
-0.03,-0.61,0.73,1.27,2.01,-0.08
-0.03,-0.61,0.72,0.57,2.51,-0.39
-0.03,-0.62,0.72,-0.01,2.7,-0.72
-0.03,-0.62,0.71,-0.46,2.46,-0.96
-0.03,-0.62,0.71,-0.76,1.81,-0.99
-0.03,-0.62,0.71,-0.76,1.81,-0.99
-0.03,-0.62,0.7,-0.86,0.71,-0.81
-0.02,-0.63,0.7,-0.75,-0.74,-0.54
-0.0,-0.63,0.7,-0.39,-2.37,-0.16
0.02,-0.63,0.7,0.24,-3.87,0.32
0.04,-0.63,0.71,1.04,-4.85,0.81
0.04,-0.63,0.71,1.04,-4.85,0.81
0.05,-0.62,0.72,1.8,-5.11,1.27
0.06,-0.62,0.73,2.32,-4.49,1.67
0.05,-0.63,0.73,2.46,-3.04,1.9
0.04,-0.63,0.73,2.25,-0.94,1.97
0.02,-0.64,0.73,1.91,1.5,1.87
0.02,-0.64,0.73,1.91,1.5,1.87
0.0,-0.65,0.73,1.62,3.88,1.62
-0.01,-0.65,0.74,1.43,5.93,1.35
-0.01,-0.65,0.74,1.29,7.58,1.1
-0.02,-0.65,0.75,1.22,8.82,0.84
-0.03,-0.65,0.75,1.28,9.64,0.54
-0.03,-0.65,0.75,1.28,9.64,0.54
-0.03,-0.65,0.76,1.47,10.0,0.26
-0.04,-0.65,0.77,1.73,9.91,0.04
-0.04,-0.65,0.77,1.97,9.35,-0.17
-0.05,-0.65,0.77,2.2,8.34,-0.42
-0.04,-0.64,0.77,2.43,7.03,-0.69
-0.04,-0.64,0.77,2.43,7.03,-0.69
-0.03,-0.63,0.77,2.66,5.68,-1.03
-0.02,-0.62,0.77,2.67,4.58,-1.41
-0.01,-0.62,0.77,2.4,3.82,-1.77
-0.01,-0.63,0.75,1.97,3.43,-2.09
-0.01,-0.64,0.75,1.54,3.32,-2.3
-0.01,-0.64,0.75,1.54,3.32,-2.3
-0.02,-0.65,0.75,1.29,3.36,-2.38
-0.03,-0.65,0.74,1.26,3.51,-2.41
-0.03,-0.65,0.73,1.47,3.71,-2.47
-0.03,-0.64,0.73,1.95,3.9,-2.5
-0.04,-0.63,0.74,2.59,4.06,-2.5
-0.04,-0.63,0.74,2.59,4.06,-2.5
-0.04,-0.62,0.74,3.27,4.09,-2.49
-0.05,-0.61,0.75,3.83,3.93,-2.51
-0.04,-0.6,0.75,4.13,3.65,-2.57
-0.03,-0.6,0.76,4.08,3.27,-2.63
-0.02,-0.6,0.75,3.7,2.88,-2.65
-0.02,-0.6,0.75,3.7,2.88,-2.65
-0.02,-0.61,0.75,3.12,2.55,-2.58
-0.02,-0.61,0.75,2.42,2.32,-2.49
-0.02,-0.62,0.75,1.67,2.21,-2.35
-0.01,-0.62,0.75,0.93,2.29,-2.29
-0.01,-0.63,0.75,0.26,2.58,-2.22
-0.01,-0.63,0.75,0.26,2.58,-2.22
-0.01,-0.63,0.74,-0.34,3.02,-2.07
-0.02,-0.64,0.74,-0.84,3.5,-1.86
-0.03,-0.64,0.74,-1.13,3.89,-1.62
-0.04,-0.64,0.74,-1.13,3.99,-1.3
-0.04,-0.64,0.74,-0.89,3.69,-0.85
-0.04,-0.64,0.74,-0.89,3.69,-0.85
-0.04,-0.63,0.75,-0.51,3.05,-0.34
-0.04,-0.63,0.75,-0.13,2.15,0.11
-0.04,-0.63,0.75,0.23,1.06,0.42
-0.03,-0.62,0.75,0.58,0.01,0.55
-0.02,-0.62,0.76,0.82,-0.77,0.58
-0.02,-0.62,0.76,0.82,-0.77,0.58
-0.02,-0.62,0.75,0.9,-1.26,0.49
-0.01,-0.63,0.75,0.91,-1.46,0.38
-0.01,-0.63,0.75,0.9,-1.35,0.23
-0.01,-0.63,0.76,0.91,-0.94,0.04
-0.02,-0.63,0.75,0.92,-0.32,-0.12
-0.02,-0.63,0.75,0.92,-0.32,-0.12
-0.03,-0.63,0.75,0.9,0.31,-0.25
-0.04,-0.63,0.75,0.9,0.81,-0.33
-0.04,-0.64,0.74,1.03,1.02,-0.38
-0.05,-0.64,0.74,1.35,0.89,-0.35
-0.05,-0.63,0.74,1.93,0.45,-0.22
-0.05,-0.63,0.74,1.93,0.45,-0.22
-0.05,-0.63,0.74,2.73,-0.27,0.02
-0.05,-0.62,0.73,3.71,-1.27,0.36
-0.05,-0.62,0.73,4.79,-2.52,0.78
-0.04,-0.61,0.73,5.93,-3.95,1.23
-0.04,-0.6,0.73,7.03,-5.41,1.74
-0.04,-0.6,0.73,7.03,-5.41,1.74
-0.04,-0.58,0.74,7.93,-6.75,2.25
-0.04,-0.57,0.74,8.55,-7.92,2.58
-0.03,-0.57,0.74,8.78,-8.86,2.77
-0.01,-0.56,0.74,8.62,-9.44,2.91
-0.01,-0.56,0.75,8.01,-9.56,3.04
-0.01,-0.56,0.75,8.01,-9.56,3.04
-0.0,-0.57,0.74,6.98,-9.14,3.1
0.0,-0.58,0.73,5.73,-8.22,3.04
0.0,-0.6,0.73,4.57,-6.94,2.96
-0.0,-0.61,0.72,3.65,-5.43,2.93
-0.01,-0.62,0.72,3.04,-3.89,2.98
-0.01,-0.62,0.72,3.04,-3.89,2.98
-0.02,-0.63,0.72,2.77,-2.5,3.0
-0.03,-0.63,0.72,2.87,-1.46,3.1
-0.04,-0.62,0.73,3.25,-0.88,3.39
-0.04,-0.61,0.74,3.79,-0.8,3.78
-0.04,-0.61,0.74,4.4,-1.16,4.19
-0.04,-0.61,0.74,4.4,-1.16,4.19
-0.04,-0.61,0.75,4.92,-1.8,4.56
-0.03,-0.61,0.76,5.31,-2.53,4.84
-0.02,-0.61,0.76,5.58,-3.07,5.03
-0.02,-0.61,0.77,5.59,-3.34,5.09
-0.02,-0.61,0.77,5.28,-3.34,5.01
-0.02,-0.61,0.77,5.28,-3.34,5.01
-0.02,-0.62,0.77,4.71,-3.09,4.79
-0.03,-0.62,0.77,3.97,-2.64,4.43
-0.03,-0.63,0.76,3.15,-2.05,3.96
-0.03,-0.64,0.75,2.36,-1.36,3.42
-0.03,-0.64,0.75,1.72,-0.67,2.87
-0.03,-0.64,0.75,1.72,-0.67,2.87
-0.03,-0.65,0.75,1.31,-0.01,2.34
-0.03,-0.65,0.75,1.09,0.51,1.89
-0.04,-0.65,0.74,1.1,0.84,1.54
-0.05,-0.65,0.75,1.32,0.94,1.26
-0.05,-0.65,0.75,1.72,0.77,1.01
-0.05,-0.65,0.75,1.72,0.77,1.01
-0.05,-0.65,0.75,2.31,0.37,0.72
-0.05,-0.64,0.75,2.96,-0.24,0.45
-0.06,-0.63,0.75,3.6,-1.08,0.24
-0.06,-0.62,0.75,4.15,-2.18,0.11
-0.05,-0.61,0.75,4.55,-3.47,-0.07
-0.05,-0.61,0.75,4.55,-3.47,-0.07
-0.05,-0.61,0.74,4.76,-4.8,-0.27
-0.04,-0.61,0.74,4.86,-6.01,-0.5
-0.04,-0.6,0.73,4.83,-7.03,-0.76
-0.04,-0.6,0.73,4.57,-7.85,-1.01
-0.04,-0.6,0.72,4.08,-8.55,-1.22
-0.04,-0.6,0.72,4.08,-8.55,-1.22
-0.04,-0.6,0.71,3.43,-9.11,-1.38
-0.03,-0.61,0.71,2.72,-9.54,-1.4
-0.03,-0.62,0.7,1.96,-9.86,-1.38
-0.04,-0.64,0.69,1.16,-9.97,-1.31
-0.04,-0.64,0.69,0.32,-9.87,-1.25
-0.05,-0.65,0.68,0.32,-9.87,-1.25
-0.05,-0.67,0.67,-0.42,-9.62,-1.27
-0.06,-0.69,0.66,-1.07,-9.27,-1.25
-0.07,-0.7,0.66,-1.71,-8.86,-1.19
-0.09,-0.73,0.64,-2.46,-8.35,-1.13
-0.09,-0.73,0.64,-3.33,-7.82,-1.28
-0.1,-0.76,0.63,-3.33,-7.82,-1.28
-0.1,-0.79,0.61,-4.22,-7.27,-1.71
-0.09,-0.82,0.6,-5.02,-6.51,-2.41
-0.09,-0.84,0.59,-5.74,-5.4,-3.33
-0.09,-0.86,0.58,-6.36,-3.93,-4.42
-0.09,-0.86,0.58,-6.36,-3.93,-4.42
-0.1,-0.88,0.57,-6.91,-2.23,-5.63
-0.12,-0.89,0.56,-7.48,-0.39,-6.96
-0.13,-0.91,0.55,-8.1,1.44,-8.52
-0.14,-0.92,0.55,-8.73,3.26,-10.45
-0.14,-0.93,0.54,-9.41,5.13,-12.73
-0.14,-0.93,0.54,-9.41,5.13,-12.73
-0.13,-0.94,0.54,-10.29,7.14,-15.28
-0.12,-0.94,0.53,-11.46,9.35,-17.96
-0.11,-0.96,0.52,-12.98,11.82,-20.8
-0.11,-0.98,0.51,-14.69,14.35,-23.72
-0.11,-0.99,0.5,-16.55,16.79,-26.63
-0.11,-0.99,0.5,-16.55,16.79,-26.63
-0.11,-1.01,0.48,-18.38,18.93,-29.51
-0.09,-1.03,0.47,-19.95,20.64,-32.32
-0.08,-1.04,0.45,-21.26,22.15,-35.04
-0.06,-1.05,0.44,-21.95,23.63,-37.51
-0.05,-1.05,0.44,-22.23,25.03,-39.8
-0.05,-1.05,0.44,-22.23,25.03,-39.8
-0.04,-1.05,0.44,-22.26,26.32,-42.03
-0.03,-1.05,0.43,-22.01,27.54,-44.19
-0.02,-1.04,0.44,-21.55,28.5,-46.25
-0.01,-1.03,0.45,-21.03,29.06,-48.04
-0.02,-1.03,0.46,-20.53,29.09,-49.47
-0.02,-1.03,0.46,-20.53,29.09,-49.47
-0.03,-1.03,0.47,-20.02,28.57,-50.62
-0.04,-1.02,0.47,-19.38,27.46,-51.53
-0.06,-1.02,0.49,-18.67,25.62,-52.42
-0.07,-1.0,0.52,-18.04,22.98,-53.77
-0.04,-0.97,0.55,-17.71,20.28,-56.06
-0.04,-0.97,0.55,-17.71,20.28,-56.06
0.01,-0.95,0.6,-17.99,18.0,-59.12
0.08,-0.92,0.64,-19.38,16.23,-62.44
0.13,-0.91,0.66,-22.05,15.46,-65.84
0.19,-0.93,0.68,-25.78,15.94,-69.26
0.22,-0.95,0.69,-30.22,17.65,-72.31
0.22,-0.95,0.69,-30.22,17.65,-72.31
0.22,-0.97,0.67,-34.81,20.15,-74.88
0.18,-0.99,0.64,-38.71,22.81,-77.04
0.14,-1.0,0.63,-41.38,24.88,-78.74
0.12,-0.99,0.62,-42.74,25.85,-79.86
0.09,-0.97,0.61,-42.59,25.55,-80.39
0.09,-0.97,0.61,-42.59,25.55,-80.39
0.08,-0.91,0.61,-40.82,23.85,-80.5
0.1,-0.84,0.65,-37.83,20.96,-80.55
0.1,-0.78,0.69,-34.82,17.28,-80.46
0.17,-0.83,0.69,-31.88,13.19,-81.1
0.23,-0.81,0.69,-28.32,9.65,-81.3
0.23,-0.81,0.69,-28.32,9.65,-81.3
0.24,-0.81,0.73,-24.56,6.63,-80.38
0.26,-0.79,0.76,-20.49,4.45,-79.24
0.3,-0.7,0.82,-16.41,3.44,-78.69
0.32,-0.61,0.9,-13.41,3.47,-78.71
0.31,-0.56,0.94,-12.58,4.59,-78.76
0.31,-0.56,0.94,-12.58,4.59,-78.76
0.28,-0.55,0.94,-14.16,6.26,-78.51
0.25,-0.55,0.93,-17.51,7.85,-77.94
0.23,-0.57,0.94,-21.72,8.95,-77.09
0.23,-0.61,0.94,-26.11,9.37,-75.8
0.22,-0.64,0.95,-30.12,8.73,-74.03
0.22,-0.64,0.95,-30.12,8.73,-74.03
0.22,-0.68,0.94,-33.21,7.03,-71.92
0.23,-0.69,0.94,-34.86,4.39,-69.64
0.24,-0.69,0.95,-34.89,0.9,-67.38
0.28,-0.7,0.96,-33.55,-3.03,-65.25
0.34,-0.7,0.98,-31.28,-6.73,-63.3
0.34,-0.7,0.98,-31.28,-6.73,-63.3
0.4,-0.67,1.0,-28.37,-9.5,-61.7
0.46,-0.65,1.03,-25.26,-10.79,-60.44
0.5,-0.63,1.05,-22.3,-10.7,-59.17
0.51,-0.63,1.04,-19.91,-9.27,-57.6
0.46,-0.62,1.07,-18.24,-6.88,-55.56
0.46,-0.62,1.07,-18.24,-6.88,-55.56
0.4,-0.61,1.07,-17.38,-4.1,-53.36
0.35,-0.6,1.04,-17.28,-1.92,-51.2
0.31,-0.59,1.02,-17.65,-0.71,-49.27
0.31,-0.59,1.01,-18.25,-0.7,-47.54
0.32,-0.6,0.99,-18.96,-1.71,-46.05
0.32,-0.6,0.99,-18.96,-1.71,-46.05
0.33,-0.62,0.98,-19.54,-3.46,-44.68
0.35,-0.63,0.96,-19.66,-5.7,-43.25
0.36,-0.64,0.95,-19.16,-7.98,-41.45
0.35,-0.63,0.95,-17.94,-10.25,-39.19
0.35,-0.62,0.94,-15.97,-12.71,-36.87
0.35,-0.62,0.94,-15.97,-12.71,-36.87
0.36,-0.6,0.93,-13.45,-15.11,-34.67
0.39,-0.56,0.91,-10.62,-16.74,-32.64
0.43,-0.53,0.91,-7.82,-16.99,-30.96
0.44,-0.51,0.93,-5.44,-15.73,-29.71
0.42,-0.52,0.95,-3.7,-13.65,-28.91
0.42,-0.52,0.95,-3.7,-13.65,-28.91
0.36,-0.55,0.96,-2.79,-11.46,-28.24
0.28,-0.57,0.95,-2.81,-10.04,-27.29
0.2,-0.58,0.94,-3.4,-10.09,-26.15
0.17,-0.58,0.93,-4.07,-11.81,-25.23
0.18,-0.56,0.92,-4.45,-14.97,-24.84
0.18,-0.56,0.92,-4.45,-14.97,-24.84
0.24,-0.52,0.91,-4.39,-18.76,-25.14
0.33,-0.48,0.9,-4.0,-22.53,-25.93
0.41,-0.47,0.89,-3.55,-25.9,-26.79
0.45,-0.49,0.89,-3.27,-28.51,-26.98
0.41,-0.51,0.87,-3.15,-30.28,-25.97
0.41,-0.51,0.87,-3.15,-30.28,-25.97
0.32,-0.51,0.82,-2.98,-31.21,-23.73
0.23,-0.5,0.79,-2.56,-31.3,-20.78
0.17,-0.48,0.77,-1.9,-30.47,-17.95
0.14,-0.46,0.78,-1.26,-28.81,-16.32
0.14,-0.43,0.77,-0.74,-26.72,-16.51
0.14,-0.43,0.77,-0.74,-26.72,-16.51
0.14,-0.41,0.76,-0.03,-24.61,-18.58
0.15,-0.38,0.75,1.19,-22.72,-22.02
0.17,-0.37,0.76,2.92,-21.56,-25.81
0.21,-0.36,0.79,4.73,-21.53,-28.89
0.26,-0.35,0.83,6.15,-22.7,-30.57
0.26,-0.35,0.83,6.15,-22.7,-30.57
0.3,-0.34,0.86,7.0,-24.6,-30.6
0.32,-0.36,0.87,7.23,-26.87,-28.92
0.3,-0.38,0.86,6.63,-29.43,-25.52
0.25,-0.39,0.84,5.31,-32.17,-21.21
0.21,-0.41,0.8,3.83,-34.71,-17.23
0.21,-0.41,0.8,3.83,-34.71,-17.23
0.19,-0.42,0.76,2.77,-36.86,-14.31
0.2,-0.43,0.73,2.47,-38.55,-12.49
0.25,-0.46,0.71,2.67,-39.68,-11.3
0.31,-0.47,0.72,3.22,-40.06,-10.2
0.36,-0.47,0.75,4.2,-39.25,-9.17
0.36,-0.47,0.75,4.2,-39.25,-9.17
0.37,-0.45,0.77,5.53,-36.78,-8.38
0.35,-0.42,0.77,6.91,-32.8,-8.03
0.29,-0.38,0.78,7.98,-27.98,-8.12
0.23,-0.34,0.78,8.31,-23.07,-8.62
0.18,-0.32,0.75,7.73,-18.85,-9.39
0.18,-0.32,0.75,7.73,-18.85,-9.39
0.15,-0.33,0.72,6.58,-16.1,-9.87
0.13,-0.35,0.69,5.23,-15.14,-9.19
0.14,-0.38,0.67,3.91,-16.07,-6.81
0.18,-0.39,0.68,2.74,-18.39,-2.74
0.22,-0.39,0.71,1.9,-21.27,2.45
0.22,-0.39,0.71,1.9,-21.27,2.45
0.24,-0.39,0.73,1.44,-23.82,7.93
0.24,-0.39,0.72,1.32,-25.61,13.34
0.2,-0.38,0.72,1.26,-26.83,18.52
0.17,-0.38,0.71,0.85,-27.7,23.14
0.16,-0.4,0.69,-0.0,-28.3,26.7
0.16,-0.4,0.69,-0.0,-28.3,26.7
0.17,-0.42,0.67,-1.1,-28.54,28.97
0.18,-0.45,0.66,-2.16,-28.26,30.13
0.19,-0.48,0.65,-2.99,-27.35,30.64
0.2,-0.5,0.65,-3.45,-25.85,30.91
0.21,-0.5,0.65,-3.35,-23.78,31.08
0.21,-0.5,0.65,-3.35,-23.78,31.08
0.21,-0.5,0.66,-2.38,-21.12,31.25
0.19,-0.48,0.68,-0.6,-17.92,31.42
0.15,-0.46,0.7,1.77,-14.54,31.54
0.1,-0.44,0.72,4.39,-11.66,31.67
0.05,-0.43,0.75,7.0,-10.04,32.47
0.05,-0.43,0.75,7.0,-10.04,32.47
-0.0,-0.42,0.77,9.21,-10.08,34.44
-0.03,-0.42,0.8,10.74,-11.95,37.72
-0.05,-0.42,0.82,11.38,-15.64,41.84
-0.06,-0.45,0.83,11.13,-20.77,46.16
-0.06,-0.49,0.81,10.31,-26.84,50.18
-0.06,-0.49,0.81,10.31,-26.84,50.18
-0.06,-0.54,0.78,9.24,-33.4,53.69
-0.06,-0.56,0.75,8.13,-40.07,56.44
-0.04,-0.6,0.71,7.16,-46.51,58.0
-0.02,-0.64,0.66,6.42,-52.37,58.56
0.01,-0.67,0.61,6.01,-57.31,58.61
0.01,-0.67,0.61,6.01,-57.31,58.61
0.06,-0.68,0.56,6.15,-61.08,58.08
0.12,-0.7,0.54,6.95,-63.39,57.12
0.17,-0.72,0.54,8.46,-63.84,56.23
0.18,-0.73,0.55,10.59,-62.19,55.61
0.16,-0.7,0.56,13.13,-58.61,55.01
0.16,-0.7,0.56,13.13,-58.61,55.01
0.12,-0.67,0.57,15.77,-53.55,54.02
0.06,-0.65,0.58,18.14,-47.77,52.51
0.01,-0.64,0.58,20.1,-42.02,50.85
-0.05,-0.64,0.57,21.67,-37.07,49.51
-0.1,-0.65,0.56,22.95,-33.77,48.96
-0.1,-0.65,0.56,22.95,-33.77,48.96
-0.12,-0.68,0.54,23.85,-32.76,49.65
-0.13,-0.75,0.51,24.01,-34.5,51.82
-0.13,-0.82,0.48,23.43,-39.16,55.44
-0.12,-0.88,0.45,22.75,-45.99,59.87
-0.09,-0.93,0.44,22.52,-54.01,64.18
-0.09,-0.93,0.44,22.52,-54.01,64.18
-0.04,-0.97,0.45,23.1,-62.21,67.65
0.0,-0.99,0.45,24.8,-69.52,69.91
0.04,-1.01,0.43,27.81,-75.04,70.81
0.07,-1.0,0.4,32.24,-78.06,70.24
0.09,-0.98,0.39,38.22,-78.62,68.33
0.09,-0.98,0.39,38.22,-78.62,68.33
0.13,-0.93,0.4,45.53,-76.75,65.51
0.16,-0.86,0.44,53.34,-72.34,62.43
0.17,-0.79,0.49,60.51,-65.81,59.59
0.15,-0.72,0.52,66.25,-58.11,57.44
0.12,-0.66,0.55,70.0,-49.99,56.12
0.12,-0.66,0.55,70.0,-49.99,56.12
0.08,-0.62,0.58,71.4,-42.09,55.56
0.03,-0.61,0.61,70.05,-35.11,55.64
-0.0,-0.63,0.6,65.63,-29.75,56.25
-0.03,-0.67,0.57,58.37,-26.61,57.41
-0.05,-0.72,0.53,48.97,-25.87,59.08
-0.05,-0.72,0.53,48.97,-25.87,59.08
-0.06,-0.79,0.5,38.56,-27.15,60.94
-0.05,-0.86,0.47,28.34,-29.61,62.41
-0.03,-0.92,0.44,19.13,-32.4,63.04
0.01,-0.97,0.42,11.62,-34.76,62.66
0.05,-1.01,0.39,6.37,-36.03,61.42
0.05,-1.01,0.39,6.37,-36.03,61.42
0.09,-1.03,0.38,3.87,-35.78,59.68
0.11,-1.02,0.38,4.4,-33.76,57.82
0.11,-0.98,0.4,7.91,-29.98,56.17
0.09,-0.9,0.44,13.79,-24.65,54.82
0.04,-0.82,0.49,20.95,-18.34,53.61
0.04,-0.82,0.49,20.95,-18.34,53.61
-0.0,-0.76,0.53,28.02,-12.0,52.25
-0.03,-0.72,0.56,33.79,-6.59,50.85
-0.04,-0.7,0.59,37.4,-2.7,49.86
-0.05,-0.69,0.61,38.51,-0.37,49.63
-0.06,-0.69,0.63,37.11,0.27,50.25
-0.06,-0.69,0.63,37.11,0.27,50.25
-0.08,-0.72,0.62,33.44,-0.78,51.52
-0.12,-0.77,0.59,28.14,-3.31,53.04
-0.14,-0.82,0.55,22.39,-6.84,54.11
-0.14,-0.87,0.51,17.3,-10.91,54.23
-0.11,-0.9,0.49,13.67,-14.94,53.37
-0.11,-0.9,0.49,13.67,-14.94,53.37
-0.07,-0.9,0.49,11.76,-18.39,51.83
-0.04,-0.88,0.51,11.46,-20.83,49.94
-0.02,-0.85,0.53,12.19,-21.94,47.74
-0.0,-0.84,0.54,13.35,-21.69,45.42
0.01,-0.82,0.54,14.64,-20.47,43.38
0.01,-0.82,0.54,14.64,-20.47,43.38
0.01,-0.81,0.53,15.97,-18.45,41.89
-0.0,-0.79,0.54,17.3,-15.93,41.02
-0.02,-0.78,0.54,18.44,-13.37,40.54
-0.02,-0.78,0.53,19.19,-11.2,40.34
-0.02,-0.8,0.51,19.32,-9.86,40.59
-0.02,-0.8,0.51,19.32,-9.86,40.59
-0.01,-0.81,0.5,18.77,-9.49,41.44
0.0,-0.83,0.49,17.81,-9.9,42.57
0.02,-0.84,0.48,16.79,-10.63,43.65
0.03,-0.85,0.47,16.08,-11.35,44.5
0.04,-0.85,0.47,15.88,-11.74,45.13
0.04,-0.85,0.47,15.88,-11.74,45.13
0.03,-0.84,0.48,16.22,-11.64,45.58
0.01,-0.82,0.49,16.99,-11.1,45.74
-0.0,-0.8,0.5,17.99,-10.22,45.62
-0.02,-0.79,0.52,19.05,-9.13,45.3
-0.04,-0.78,0.53,20.01,-7.85,44.75
-0.04,-0.78,0.53,20.01,-7.85,44.75
-0.04,-0.78,0.56,20.89,-6.45,43.85
-0.04,-0.79,0.57,21.83,-4.81,42.76
-0.05,-0.8,0.58,22.87,-3.1,41.76
-0.05,-0.8,0.58,24.04,-1.27,41.1
-0.06,-0.8,0.58,25.43,0.66,40.81
-0.06,-0.8,0.58,25.43,0.66,40.81
-0.07,-0.79,0.59,27.0,2.61,40.72
-0.07,-0.77,0.6,28.7,4.6,40.61
-0.08,-0.73,0.62,30.23,6.63,40.49
-0.06,-0.74,0.63,31.12,8.59,39.8
-0.04,-0.71,0.63,31.41,10.55,39.53
-0.04,-0.71,0.63,31.41,10.55,39.53
-0.06,-0.69,0.64,30.59,12.28,40.14
-0.07,-0.7,0.65,28.8,13.65,40.58
-0.06,-0.71,0.63,26.55,15.09,40.61
-0.08,-0.73,0.63,23.77,16.61,40.11
-0.08,-0.74,0.62,20.77,18.12,38.75
-0.08,-0.74,0.62,20.77,18.12,38.75
-0.09,-0.75,0.61,17.64,19.74,36.95
-0.1,-0.76,0.6,14.32,21.02,34.92
-0.1,-0.76,0.57,10.99,21.66,32.81
-0.1,-0.77,0.55,7.72,21.76,30.91
-0.09,-0.78,0.54,4.69,21.21,29.57
-0.09,-0.78,0.54,4.69,21.21,29.57
-0.07,-0.78,0.53,1.95,20.12,28.68
-0.04,-0.8,0.51,-0.35,18.7,28.37
-0.02,-0.81,0.5,-1.98,17.05,28.94
-0.0,-0.83,0.49,-2.81,15.2,30.35
0.0,-0.83,0.49,-2.74,13.39,32.42
0.0,-0.83,0.49,-2.74,13.39,32.42
-0.0,-0.84,0.49,-2.06,11.8,34.89
-0.01,-0.85,0.51,-1.15,10.43,37.42
-0.03,-0.88,0.51,-0.09,9.37,39.55
-0.05,-0.9,0.51,1.22,8.77,40.85
-0.06,-0.91,0.51,2.86,8.57,41.12
-0.06,-0.91,0.51,2.86,8.57,41.12
-0.06,-0.91,0.51,4.76,8.61,40.4
-0.04,-0.89,0.53,6.71,8.8,38.88
-0.02,-0.88,0.56,8.28,9.11,36.89
-0.01,-0.86,0.57,9.1,9.58,34.71
-0.0,-0.85,0.57,9.11,10.22,32.54
-0.0,-0.85,0.57,9.11,10.22,32.54
-0.0,-0.85,0.56,8.42,10.99,30.42
0.01,-0.87,0.57,7.21,11.74,28.44
0.02,-0.88,0.57,5.6,12.26,26.93
0.02,-0.89,0.57,3.66,12.43,26.14
0.01,-0.92,0.56,1.59,12.23,25.96
0.01,-0.92,0.56,1.59,12.23,25.96
-0.01,-0.96,0.54,-0.32,11.49,26.07
-0.02,-1.0,0.53,-1.75,10.06,26.25
-0.03,-1.04,0.51,-2.37,8.24,26.15
-0.02,-1.08,0.51,-2.03,6.47,25.33
-0.02,-1.08,0.51,-0.87,5.19,23.59
-0.01,-1.11,0.5,-0.87,5.19,23.59
0.01,-1.13,0.5,1.09,4.73,20.9
0.03,-1.13,0.5,3.77,5.2,17.41
0.04,-1.13,0.52,6.86,6.54,13.36
0.03,-1.13,0.53,9.88,8.6,9.06
0.03,-1.13,0.53,9.88,8.6,9.06
-0.0,-1.12,0.53,12.52,11.17,4.35
-0.02,-1.12,0.54,14.72,13.88,-1.06
-0.01,-1.11,0.55,16.44,16.35,-6.99
0.0,-1.08,0.59,17.18,18.43,-13.06
0.06,-1.18,0.58,16.28,19.91,-19.43
0.06,-1.18,0.58,16.28,19.91,-19.43
0.15,-1.28,0.5,15.61,21.4,-24.14
0.07,-1.22,0.52,15.63,22.51,-25.21
-0.01,-1.22,0.54,16.7,23.08,-28.12
-0.0,-1.24,0.47,19.04,23.95,-34.91
0.04,-1.26,0.43,22.47,24.26,-42.73
0.04,-1.26,0.43,22.47,24.26,-42.73
0.09,-1.22,0.4,28.02,24.42,-49.46
0.12,-1.06,0.43,35.56,24.99,-54.65
0.12,-0.82,0.51,43.1,25.62,-58.5
0.11,-0.65,0.58,48.66,26.01,-62.29
0.15,-0.6,0.59,51.93,26.26,-66.95
0.15,-0.6,0.59,51.93,26.26,-66.95
0.21,-0.58,0.6,53.36,26.67,-71.08
0.25,-0.56,0.63,53.1,27.52,-73.47
0.26,-0.54,0.68,51.66,29.07,-74.2
0.25,-0.53,0.71,49.4,31.72,-73.6
0.21,-0.5,0.74,46.5,35.05,-72.15
0.21,-0.5,0.74,46.5,35.05,-72.15
0.17,-0.51,0.76,43.17,38.53,-70.61
0.12,-0.53,0.78,39.73,41.83,-68.89
0.07,-0.53,0.8,36.34,44.61,-66.88
0.05,-0.54,0.83,33.29,46.92,-65.18
0.03,-0.54,0.87,30.94,48.96,-63.73
0.03,-0.54,0.87,30.94,48.96,-63.73
0.01,-0.52,0.9,29.17,50.63,-62.65
-0.0,-0.48,0.94,27.76,51.88,-62.21
-0.01,-0.45,0.98,26.52,52.82,-62.49
