ax,ay,az,gx,gy,gz
-0.36,0.0,0.91,-0.28,-3.86,-2.62
-0.36,0.0,0.92,-0.26,-3.85,-2.63
-0.36,0.01,0.91,-0.28,-3.76,-2.63
-0.37,0.01,0.92,-0.34,-3.62,-2.57
-0.37,0.01,0.92,-0.53,-3.55,-2.48
-0.37,0.01,0.92,-0.86,-3.54,-2.39
-0.37,0.01,0.92,-0.86,-3.54,-2.39
-0.37,0.01,0.92,-1.29,-3.64,-2.25
-0.37,0.0,0.91,-1.78,-3.82,-2.09
-0.36,-0.0,0.91,-2.25,-4.09,-2.0
-0.36,-0.01,0.91,-2.69,-4.4,-1.93
-0.36,-0.01,0.9,-3.05,-4.72,-1.86
-0.36,-0.01,0.9,-3.05,-4.72,-1.86
-0.35,-0.01,0.9,-3.34,-5.0,-1.85
-0.35,-0.01,0.9,-3.55,-5.18,-1.87
-0.35,-0.02,0.9,-3.66,-5.18,-1.95
-0.35,-0.01,0.9,-3.63,-4.98,-2.07
-0.35,-0.01,0.91,-3.49,-4.61,-2.17
-0.35,-0.01,0.91,-3.49,-4.61,-2.17
-0.36,-0.0,0.91,-3.3,-4.12,-2.26
-0.37,-0.0,0.91,-3.15,-3.57,-2.33
-0.37,0.0,0.91,-3.04,-3.12,-2.45
-0.37,0.0,0.91,-2.95,-2.82,-2.54
-0.37,0.0,0.91,-2.91,-2.7,-2.57
-0.37,0.0,0.91,-2.91,-2.7,-2.57
-0.37,0.01,0.91,-2.92,-2.74,-2.54
-0.37,0.0,0.91,-2.98,-3.0,-2.51
-0.37,0.01,0.91,-3.1,-3.41,-2.51
-0.36,0.01,0.91,-3.26,-3.89,-2.5
-0.36,0.0,0.91,-3.38,-4.38,-2.48
-0.36,0.0,0.91,-3.38,-4.38,-2.48
-0.36,0.01,0.91,-3.46,-4.8,-2.4
-0.37,0.01,0.91,-3.56,-5.1,-2.3
-0.37,0.01,0.91,-3.73,-5.33,-2.22
-0.36,0.01,0.9,-3.95,-5.54,-2.2
-0.36,0.0,0.9,-4.12,-5.66,-2.17
-0.36,0.0,0.9,-4.12,-5.66,-2.17
-0.35,-0.0,0.9,-4.15,-5.57,-2.14
-0.35,-0.0,0.9,-4.08,-5.31,-2.0
-0.35,-0.0,0.9,-3.92,-4.96,-1.81
-0.36,-0.01,0.89,-3.71,-4.64,-1.6
-0.36,-0.01,0.89,-3.42,-4.43,-1.39
-0.36,-0.01,0.89,-3.42,-4.43,-1.39
-0.35,-0.01,0.89,-3.05,-4.35,-1.19
-0.36,-0.01,0.89,-2.64,-4.32,-1.03
-0.36,-0.01,0.89,-2.24,-4.36,-0.96
-0.35,-0.0,0.89,-1.95,-4.47,-0.98
-0.35,-0.0,0.89,-1.81,-4.57,-1.02
-0.35,0.0,0.9,-1.81,-4.57,-1.02
-0.35,0.0,0.91,-1.84,-4.63,-1.08
-0.36,0.0,0.9,-2.11,-4.68,-1.16
-0.36,-0.0,0.89,-2.58,-4.78,-1.25
-0.36,-0.01,0.89,-3.11,-5.02,-1.38
-0.36,-0.01,0.89,-3.11,-5.02,-1.38
-0.36,-0.01,0.88,-3.63,-5.28,-1.55
-0.35,-0.01,0.88,-4.04,-5.48,-1.73
-0.34,-0.01,0.88,-4.27,-5.54,-1.92
-0.34,-0.01,0.88,-4.35,-5.47,-2.07
-0.34,-0.01,0.88,-4.28,-5.25,-2.16
-0.34,-0.01,0.88,-4.28,-5.25,-2.16
-0.34,-0.02,0.88,-4.09,-4.91,-2.2
-0.34,-0.02,0.88,-3.8,-4.49,-2.17
-0.34,-0.02,0.88,-3.38,-4.04,-2.09
-0.35,-0.01,0.88,-2.89,-3.66,-1.99
-0.35,-0.01,0.88,-2.38,-3.36,-1.91
-0.35,-0.01,0.88,-2.38,-3.36,-1.91
-0.36,0.0,0.89,-1.91,-3.22,-1.87
-0.36,0.0,0.89,-1.59,-3.23,-1.84
-0.36,0.01,0.89,-1.34,-3.28,-1.88
-0.35,0.01,0.89,-1.21,-3.24,-1.99
-0.35,0.01,0.9,-1.21,-3.1,-2.14
-0.35,0.01,0.9,-1.21,-3.1,-2.14
-0.35,0.01,0.9,-1.35,-2.87,-2.22
-0.36,0.01,0.9,-1.6,-2.61,-2.18
-0.37,0.0,0.9,-1.91,-2.41,-2.12
-0.37,-0.0,0.9,-2.2,-2.29,-2.1
-0.36,-0.01,0.9,-2.38,-2.27,-2.13
-0.36,-0.01,0.9,-2.38,-2.27,-2.13
-0.35,-0.01,0.9,-2.36,-2.28,-2.12
-0.35,-0.01,0.9,-2.17,-2.25,-1.99
-0.36,-0.0,0.91,-1.86,-2.24,-1.84
-0.36,0.01,0.91,-1.55,-2.32,-1.7
-0.37,0.01,0.91,-1.4,-2.48,-1.62
-0.37,0.01,0.91,-1.4,-2.48,-1.62
-0.36,0.01,0.91,-1.36,-2.69,-1.53
-0.36,0.01,0.91,-1.44,-2.93,-1.47
-0.35,0.01,0.91,-1.66,-3.06,-1.44
-0.35,0.01,0.91,-1.95,-3.09,-1.48
-0.34,0.0,0.9,-2.24,-2.97,-1.59
-0.34,0.0,0.9,-2.24,-2.97,-1.59
-0.35,-0.0,0.9,-2.44,-2.67,-1.74
-0.35,-0.0,0.9,-2.49,-2.23,-1.85
-0.36,0.0,0.91,-2.37,-1.74,-1.88
-0.37,0.01,0.91,-2.24,-1.38,-1.88
-0.37,0.01,0.91,-2.15,-1.22,-1.84
-0.37,0.01,0.91,-2.15,-1.22,-1.84
-0.37,0.01,0.92,-2.11,-1.33,-1.77
-0.37,0.01,0.92,-2.04,-1.64,-1.65
-0.37,0.01,0.92,-1.96,-2.1,-1.53
-0.37,0.01,0.92,-1.89,-2.57,-1.39
-0.37,0.01,0.92,-1.88,-3.01,-1.26
-0.37,0.01,0.92,-1.88,-3.01,-1.26
-0.36,0.01,0.92,-1.92,-3.33,-1.12
-0.36,0.01,0.92,-1.95,-3.49,-1.03
-0.36,0.01,0.92,-1.91,-3.46,-0.97
-0.36,0.01,0.92,-1.87,-3.33,-0.92
-0.36,0.01,0.92,-1.86,-3.19,-0.83
-0.36,0.01,0.92,-1.86,-3.19,-0.83
-0.37,0.01,0.92,-1.87,-3.06,-0.76
-0.37,0.02,0.92,-1.92,-2.99,-0.68
-0.37,0.01,0.91,-2.08,-3.07,-0.61
-0.37,0.01,0.91,-2.32,-3.31,-0.51
-0.36,0.01,0.91,-2.56,-3.6,-0.42
-0.36,0.01,0.91,-2.56,-3.6,-0.42
-0.36,0.01,0.91,-2.74,-3.9,-0.28
-0.36,0.01,0.91,-2.9,-4.23,-0.09
-0.36,0.01,0.91,-3.04,-4.63,0.1
-0.36,0.01,0.9,-3.14,-5.07,0.29
-0.36,0.0,0.9,-3.1,-5.56,0.42
-0.36,0.0,0.9,-3.1,-5.56,0.42
-0.35,0.0,0.9,-2.95,-6.0,0.54
-0.35,0.01,0.9,-2.73,-6.34,0.59
-0.35,0.01,0.89,-2.5,-6.56,0.58
-0.35,0.01,0.89,-2.2,-6.63,0.59
-0.35,0.02,0.89,-1.92,-6.51,0.57
-0.35,0.02,0.89,-1.92,-6.51,0.57
-0.34,0.02,0.89,-1.7,-6.18,0.5
-0.34,0.02,0.89,-1.59,-5.76,0.45
-0.34,0.02,0.88,-1.52,-5.26,0.48
-0.35,0.02,0.88,-1.46,-4.85,0.57
-0.36,0.02,0.87,-1.36,-4.57,0.76
-0.36,0.02,0.87,-1.36,-4.57,0.76
-0.36,0.02,0.87,-1.23,-4.47,1.03
-0.37,0.02,0.87,-1.1,-4.63,1.31
-0.37,0.02,0.86,-0.95,-4.92,1.56
-0.36,0.02,0.86,-0.73,-5.23,1.78
-0.36,0.03,0.86,-0.52,-5.44,2.0
-0.36,0.03,0.86,-0.52,-5.44,2.0
-0.37,0.03,0.85,-0.38,-5.46,2.21
-0.38,0.03,0.85,-0.35,-5.21,2.38
-0.39,0.02,0.84,-0.57,-4.72,2.46
-0.4,0.01,0.83,-0.95,-3.97,2.46
-0.41,-0.0,0.83,-1.44,-2.92,2.32
-0.41,-0.0,0.83,-1.44,-2.92,2.32
-0.42,-0.01,0.82,-2.02,-1.55,2.13
-0.44,-0.03,0.81,-2.63,0.06,1.91
-0.46,-0.05,0.81,-3.24,1.87,1.69
-0.48,-0.07,0.81,-3.88,3.69,1.61
-0.51,-0.1,0.81,-4.52,5.44,1.69
-0.51,-0.1,0.81,-4.52,5.44,1.69
-0.54,-0.13,0.8,-5.17,6.97,1.81
-0.55,-0.17,0.79,-5.83,8.23,1.88
-0.57,-0.2,0.8,-6.5,9.27,1.8
-0.57,-0.25,0.8,-7.15,10.2,1.51
-0.58,-0.3,0.8,-7.72,11.11,1.07
-0.58,-0.3,0.8,-7.72,11.11,1.07
-0.59,-0.35,0.79,-8.16,12.07,0.4
-0.59,-0.4,0.79,-8.37,13.26,-0.61
-0.59,-0.44,0.79,-8.15,14.79,-2.02
-0.59,-0.49,0.79,-7.42,16.68,-3.79
-0.59,-0.52,0.79,-6.19,18.92,-5.89
-0.59,-0.52,0.79,-6.19,18.92,-5.89
-0.59,-0.54,0.81,-4.41,21.4,-8.21
-0.59,-0.57,0.83,-2.11,24.05,-10.75
-0.59,-0.59,0.85,0.51,26.57,-13.55
-0.61,-0.6,0.87,3.29,28.76,-16.77
-0.62,-0.6,0.89,6.24,30.61,-20.5
-0.62,-0.6,0.89,6.24,30.61,-20.5
-0.62,-0.59,0.92,9.3,31.99,-24.71
-0.62,-0.56,0.96,12.21,32.64,-29.22
-0.62,-0.54,1.0,14.53,32.57,-33.96
-0.63,-0.51,1.03,15.94,31.67,-38.87
-0.63,-0.49,1.05,16.36,29.71,-43.83
-0.63,-0.49,1.05,16.36,29.71,-43.83
-0.62,-0.46,1.08,15.88,26.64,-48.69
-0.61,-0.44,1.1,14.64,22.5,-53.28
-0.59,-0.42,1.11,12.68,17.4,-57.48
-0.59,-0.4,1.13,9.98,11.58,-61.21
-0.58,-0.4,1.14,6.6,5.41,-64.8
-0.58,-0.4,1.14,6.6,5.41,-64.8
-0.56,-0.4,1.13,2.89,-0.72,-68.68
-0.51,-0.42,1.14,-0.58,-6.29,-73.13
-0.47,-0.4,1.15,-3.17,-10.71,-77.88
-0.43,-0.37,1.17,-4.31,-13.55,-82.32
-0.42,-0.32,1.21,-4.21,-15.27,-85.98
-0.42,-0.32,1.21,-4.21,-15.27,-85.98
-0.42,-0.26,1.23,-3.7,-16.38,-88.73
-0.43,-0.23,1.23,-3.16,-17.31,-90.57
-0.44,-0.21,1.23,-2.6,-18.6,-91.61
-0.44,-0.22,1.22,-2.22,-20.44,-92.41
-0.41,-0.23,1.2,-1.48,-22.76,-93.7
-0.41,-0.23,1.2,-1.48,-22.76,-93.7
-0.36,-0.24,1.17,0.52,-25.39,-95.61
-0.29,-0.23,1.16,4.26,-28.09,-97.74
-0.22,-0.19,1.15,9.71,-30.54,-99.61
-0.18,-0.14,1.15,16.46,-32.54,-101.05
-0.15,-0.09,1.14,23.91,-34.08,-102.08
-0.15,-0.09,1.14,23.91,-34.08,-102.08
-0.12,-0.04,1.15,31.48,-35.23,-102.79
-0.08,0.03,1.16,38.57,-36.01,-103.21
-0.06,0.08,1.18,44.65,-36.59,-103.32
-0.05,0.14,1.19,49.2,-37.05,-103.16
-0.04,0.2,1.19,51.93,-37.49,-102.95
-0.04,0.2,1.19,51.93,-37.49,-102.95
-0.01,0.25,1.19,52.67,-37.86,-102.98
0.03,0.29,1.19,51.18,-38.21,-103.32
0.06,0.31,1.19,47.36,-38.65,-103.98
0.1,0.34,1.19,41.0,-39.34,-104.75
0.13,0.31,1.17,31.86,-40.57,-105.4
0.13,0.31,1.17,31.86,-40.57,-105.4
0.14,0.27,1.12,20.45,-42.44,-105.21
0.14,0.2,1.06,8.08,-44.61,-104.47
0.17,0.13,1.02,-4.09,-46.58,-103.66
0.17,0.05,0.97,-15.18,-48.02,-102.17
0.17,-0.02,0.92,-24.26,-48.89,-99.9
0.17,-0.02,0.92,-24.26,-48.89,-99.9
0.17,-0.05,0.89,-30.65,-49.15,-97.52
0.16,-0.03,0.89,-34.24,-48.92,-95.05
0.14,-0.0,0.91,-35.63,-48.37,-92.27
0.12,0.02,0.91,-35.55,-47.57,-88.96
0.09,0.04,0.91,-34.66,-46.77,-84.96
0.09,0.04,0.91,-34.66,-46.77,-84.96
0.04,0.06,0.92,-33.38,-46.28,-80.49
-0.0,0.07,0.9,-31.81,-46.19,-75.98
-0.03,0.07,0.89,-29.73,-46.36,-71.73
-0.05,0.06,0.89,-27.11,-46.7,-68.12
-0.05,0.06,0.88,-24.05,-47.0,-65.17
-0.05,0.06,0.88,-24.05,-47.0,-65.17
-0.04,0.08,0.87,-20.55,-47.01,-62.77
-0.02,0.09,0.88,-16.49,-46.22,-60.9
-0.01,0.1,0.88,-11.84,-44.12,-59.32
-0.01,0.11,0.9,-6.65,-40.58,-57.8
-0.03,0.13,0.92,-0.95,-35.69,-56.11
-0.03,0.13,0.92,-0.95,-35.69,-56.11
-0.07,0.15,0.94,5.16,-29.59,-54.13
-0.12,0.19,0.95,11.4,-22.64,-51.82
-0.19,0.24,0.98,17.45,-15.58,-49.05
-0.27,0.29,1.0,22.9,-9.16,-45.67
-0.35,0.34,1.02,27.27,-4.07,-41.74
-0.35,0.34,1.02,27.27,-4.07,-41.74
-0.43,0.36,1.02,30.04,-0.84,-37.58
-0.5,0.37,1.02,30.96,-0.01,-33.85
-0.55,0.38,1.0,30.21,-1.83,-31.51
-0.56,0.39,0.99,28.46,-5.86,-31.14
-0.51,0.4,1.01,26.4,-11.19,-32.61
-0.51,0.4,1.01,26.4,-11.19,-32.61
-0.44,0.43,1.06,24.28,-16.81,-35.22
-0.38,0.46,1.12,22.15,-21.62,-38.13
-0.35,0.49,1.15,20.02,-24.71,-40.69
-0.35,0.51,1.15,17.97,-25.92,-42.47
-0.37,0.52,1.16,15.89,-25.84,-43.24
-0.37,0.52,1.16,15.89,-25.84,-43.24
-0.39,0.51,1.16,13.5,-25.23,-43.16
-0.41,0.5,1.15,10.63,-24.65,-42.45
-0.43,0.49,1.12,7.49,-24.7,-41.36
-0.42,0.48,1.08,4.48,-25.75,-40.15
-0.42,0.46,1.04,2.1,-27.97,-38.84
-0.42,0.46,1.04,2.1,-27.97,-38.84
-0.4,0.45,1.01,0.79,-31.2,-37.23
-0.37,0.44,0.98,0.72,-35.0,-35.1
-0.33,0.44,0.97,1.79,-38.97,-32.31
-0.3,0.44,0.95,3.78,-42.75,-28.66
-0.3,0.45,0.95,6.71,-45.8,-24.27
-0.3,0.45,0.95,6.71,-45.8,-24.27
-0.29,0.46,0.96,10.55,-47.56,-19.37
-0.28,0.49,0.99,14.98,-47.98,-14.08
-0.27,0.52,1.04,19.26,-47.21,-8.66
-0.26,0.55,1.07,22.64,-45.42,-3.34
-0.27,0.56,1.08,24.7,-42.95,1.76
-0.27,0.56,1.08,24.7,-42.95,1.76
-0.3,0.55,1.06,25.48,-40.33,6.87
-0.32,0.54,1.04,25.13,-38.19,12.23
-0.35,0.51,1.02,23.58,-37.11,17.89
-0.36,0.46,1.0,20.7,-37.29,23.74
-0.36,0.4,0.96,16.78,-38.69,29.61
-0.36,0.4,0.96,16.78,-38.69,29.61
-0.34,0.33,0.92,12.44,-41.03,35.37
-0.33,0.26,0.89,8.53,-43.9,40.94
-0.33,0.18,0.87,5.75,-46.76,46.44
-0.33,0.12,0.84,4.54,-49.16,51.93
-0.34,0.09,0.81,4.92,-50.8,57.19
-0.34,0.09,0.81,4.92,-50.8,57.19
-0.32,0.08,0.78,6.88,-51.61,61.79
-0.29,0.09,0.76,10.31,-51.38,65.46
-0.27,0.12,0.76,14.79,-49.94,68.38
-0.28,0.16,0.75,19.78,-47.25,70.78
-0.29,0.24,0.73,24.79,-43.35,72.74
-0.29,0.24,0.73,24.79,-43.35,72.74
-0.28,0.31,0.73,29.21,-38.46,74.51
-0.27,0.35,0.74,32.01,-33.05,76.52
-0.27,0.38,0.75,32.26,-27.84,78.95
-0.28,0.37,0.73,29.82,-23.27,81.86
-0.32,0.32,0.69,25.09,-19.72,85.67
-0.32,0.32,0.69,25.09,-19.72,85.67
-0.38,0.25,0.65,18.77,-17.57,90.55
-0.42,0.18,0.61,11.66,-17.12,95.79
-0.42,0.1,0.6,4.68,-18.18,100.67
-0.4,0.04,0.61,-1.32,-20.02,104.92
-0.37,0.01,0.64,-5.78,-21.69,108.38
-0.37,0.01,0.64,-5.78,-21.69,108.38
-0.35,0.0,0.66,-8.51,-22.39,111.07
-0.34,0.02,0.68,-9.66,-21.63,112.74
-0.34,0.06,0.7,-9.77,-19.36,113.47
-0.36,0.11,0.72,-9.67,-15.86,113.57
-0.39,0.16,0.75,-10.31,-11.65,113.34
-0.39,0.16,0.75,-10.31,-11.65,113.34
-0.42,0.19,0.76,-12.21,-7.26,112.87
-0.45,0.2,0.77,-15.49,-3.1,112.45
-0.48,0.18,0.76,-20.19,0.54,112.4
-0.51,0.15,0.74,-26.13,3.38,112.58
-0.52,0.1,0.71,-32.68,5.22,112.64
-0.52,0.1,0.71,-32.68,5.22,112.64
-0.52,0.04,0.69,-39.0,6.37,112.32
-0.49,-0.02,0.68,-44.29,7.26,111.82
-0.47,-0.08,0.67,-48.1,8.16,111.53
-0.45,-0.14,0.67,-50.22,9.2,111.76
-0.45,-0.19,0.66,-50.48,10.46,112.64
-0.45,-0.19,0.66,-50.48,10.46,112.64
-0.47,-0.22,0.65,-48.85,11.94,113.96
-0.5,-0.25,0.66,-45.39,13.5,115.16
-0.53,-0.26,0.67,-40.38,15.05,115.61
-0.55,-0.25,0.68,-34.21,16.55,115.06
-0.55,-0.24,0.69,-27.27,18.06,113.63
-0.55,-0.24,0.69,-27.27,18.06,113.63
-0.54,-0.21,0.7,-19.97,19.74,111.64
-0.54,-0.18,0.72,-12.77,21.63,109.3
-0.54,-0.14,0.72,-6.12,23.74,106.6
-0.54,-0.11,0.72,-0.26,26.08,103.54
-0.53,-0.08,0.72,4.59,28.57,100.29
-0.53,-0.08,0.72,4.59,28.57,100.29
-0.51,-0.06,0.72,8.28,31.09,97.32
-0.48,-0.03,0.72,10.76,33.39,95.28
-0.46,-0.01,0.74,11.95,35.35,94.94
-0.47,-0.0,0.77,11.42,36.82,96.64
-0.5,-0.03,0.77,8.94,37.33,100.01
-0.5,-0.03,0.77,8.94,37.33,100.01
-0.54,-0.07,0.76,4.87,36.52,104.31
-0.57,-0.12,0.74,0.27,34.6,108.87
-0.59,-0.17,0.75,-3.91,31.85,113.13
-0.62,-0.23,0.75,-7.17,28.68,116.66
-0.62,-0.23,0.75,-9.12,25.33,119.0
-0.65,-0.27,0.73,-9.12,25.33,119.0
-0.67,-0.29,0.71,-9.35,21.87,119.94
-0.68,-0.3,0.69,-7.71,18.38,119.66
-0.67,-0.28,0.68,-4.31,14.97,118.42
-0.65,-0.24,0.7,0.36,11.85,116.47
-0.65,-0.24,0.7,5.53,9.27,114.02
-0.61,-0.18,0.74,5.53,9.27,114.02
-0.57,-0.12,0.76,10.3,7.47,111.26
-0.53,-0.06,0.78,13.99,6.7,108.33
-0.51,-0.02,0.8,16.18,6.95,105.36
-0.49,0.02,0.84,16.52,8.08,102.57
-0.49,0.02,0.84,16.52,8.08,102.57
-0.47,0.04,0.88,14.64,9.99,100.22
-0.45,0.05,0.9,10.4,12.46,98.61
-0.45,0.04,0.92,3.93,15.14,98.08
-0.49,0.0,0.93,-4.53,17.6,98.51
-0.55,-0.07,0.92,-14.34,19.39,99.3
-0.55,-0.07,0.92,-14.34,19.39,99.3
-0.61,-0.15,0.9,-24.6,20.2,99.84
-0.67,-0.25,0.87,-34.19,19.8,99.61
-0.7,-0.34,0.84,-42.12,18.15,98.24
-0.71,-0.41,0.81,-47.63,15.47,95.61
-0.69,-0.45,0.77,-50.35,12.15,91.77
-0.69,-0.45,0.77,-50.35,12.15,91.77
-0.64,-0.47,0.75,-49.99,8.62,87.15
-0.58,-0.46,0.77,-46.6,5.41,82.29
-0.5,-0.43,0.79,-40.99,3.09,77.69
-0.45,-0.38,0.8,-34.19,1.88,73.84
-0.41,-0.32,0.81,-27.27,1.74,70.97
-0.41,-0.32,0.81,-27.27,1.74,70.97
-0.39,-0.28,0.83,-21.12,2.54,68.89
-0.38,-0.24,0.84,-16.16,4.22,67.37
-0.37,-0.22,0.85,-12.59,6.83,66.18
-0.37,-0.21,0.89,-10.47,10.29,65.14
-0.38,-0.22,0.95,-9.87,14.48,64.0
-0.38,-0.22,0.95,-9.87,14.48,64.0
-0.39,-0.23,0.98,-10.78,19.29,62.58
-0.41,-0.25,1.0,-12.83,24.55,60.79
-0.46,-0.29,1.01,-15.73,29.8,58.7
-0.5,-0.33,0.98,-19.16,34.44,56.25
-0.53,-0.37,0.95,-22.42,37.95,53.38
-0.53,-0.37,0.95,-22.42,37.95,53.38
-0.52,-0.41,0.93,-24.83,40.17,50.27
-0.5,-0.41,0.91,-26.22,40.99,47.38
-0.55,-0.31,0.92,-27.39,40.36,45.15
-0.54,-0.37,0.85,-28.94,37.3,40.97
-0.29,-0.47,0.9,-28.12,34.54,34.28
-0.29,-0.47,0.9,-28.12,34.54,34.28
-0.43,-0.2,0.95,-30.32,31.91,34.13
-0.47,-0.24,0.92,-37.28,25.62,33.48
-0.26,-0.48,0.67,-41.67,22.11,28.81
-0.15,-0.58,0.62,-40.67,21.95,27.15
-0.21,-0.48,0.83,-37.19,21.72,29.48
-0.21,-0.48,0.83,-37.19,21.72,29.48
-0.23,-0.51,0.81,-32.78,23.29,32.03
-0.3,-0.6,0.74,-25.86,27.32,34.25
-0.36,-0.57,0.79,-16.66,32.18,35.55
-0.44,-0.46,0.93,-7.08,36.81,33.95
-0.45,-0.44,0.96,0.3,40.36,27.84
-0.45,-0.44,0.96,0.3,40.36,27.84
-0.4,-0.54,0.91,6.51,43.23,19.81
-0.38,-0.58,0.92,13.4,46.38,13.39
-0.41,-0.46,0.98,20.51,49.2,9.76
-0.44,-0.32,1.0,26.82,51.13,7.55
-0.46,-0.27,0.99,32.26,51.84,5.09
-0.46,-0.27,0.99,32.26,51.84,5.09
-0.44,-0.28,1.01,37.15,51.07,1.84
-0.41,-0.31,1.02,41.48,49.2,-1.95
-0.38,-0.3,1.04,45.12,46.72,-5.34
-0.37,-0.26,1.06,47.72,43.96,-7.7
-0.38,-0.21,1.07,48.91,41.03,-9.65
-0.38,-0.21,1.07,48.91,41.03,-9.65
-0.39,-0.19,1.06,48.9,38.23,-12.14
-0.38,-0.2,1.05,48.36,35.69,-15.49
-0.37,-0.2,1.06,47.52,33.59,-19.37
-0.38,-0.19,1.06,46.6,32.02,-23.5
-0.39,-0.17,1.07,45.58,30.81,-27.73
-0.39,-0.17,1.07,45.58,30.81,-27.73
-0.4,-0.14,1.08,44.27,29.67,-32.01
-0.41,-0.1,1.09,42.64,28.41,-36.34
-0.41,-0.07,1.09,40.59,26.96,-40.71
-0.41,-0.04,1.1,38.08,25.22,-45.18
-0.4,-0.02,1.1,35.19,23.27,-49.67
-0.4,-0.02,1.1,35.19,23.27,-49.67
-0.39,-0.01,1.09,32.05,21.08,-54.07
-0.38,-0.0,1.09,28.82,18.57,-58.14
-0.37,0.0,1.08,25.69,15.83,-61.66
-0.37,0.01,1.08,22.76,12.94,-64.69
-0.37,0.01,1.07,19.96,9.85,-67.39
-0.37,0.01,1.07,19.96,9.85,-67.39
-0.37,0.02,1.06,17.24,6.39,-69.87
-0.36,0.01,1.05,14.56,2.73,-72.12
-0.33,-0.03,1.0,12.61,-0.93,-73.76
-0.36,0.02,1.0,12.12,-4.13,-74.45
-0.34,-0.01,1.03,12.23,-7.47,-75.85
-0.34,-0.01,1.03,12.23,-7.47,-75.85
-0.29,0.0,1.0,12.86,-10.36,-77.24
-0.31,0.06,1.01,13.64,-12.85,-77.62
-0.32,0.11,1.04,14.01,-15.05,-78.76
-0.27,0.07,1.03,13.21,-17.12,-81.3
-0.2,0.08,1.01,11.66,-18.41,-82.8
-0.2,0.08,1.01,11.66,-18.41,-82.8
-0.2,0.11,0.99,9.08,-18.95,-81.27
-0.23,0.04,0.87,7.07,-18.95,-78.2
-0.23,-0.13,0.79,9.22,-17.91,-76.11
-0.22,-0.13,0.87,16.3,-15.74,-74.93
-0.29,0.05,0.99,24.21,-13.58,-73.09
-0.29,0.05,0.99,24.21,-13.58,-73.09
-0.31,0.14,0.99,30.1,-12.51,-72.26
-0.3,0.14,0.93,34.66,-11.4,-71.77
-0.32,0.13,0.95,38.66,-10.4,-70.7
-0.36,0.2,0.99,41.86,-9.76,-69.72
-0.36,0.27,1.01,43.71,-9.38,-69.86
-0.36,0.27,1.01,43.71,-9.38,-69.86
-0.33,0.29,1.0,44.36,-8.89,-70.45
-0.34,0.29,1.0,44.34,-8.06,-70.27
-0.36,0.29,1.01,43.98,-7.08,-69.58
-0.36,0.31,1.03,43.36,-6.23,-69.1
-0.36,0.34,1.05,42.07,-5.89,-68.81
-0.36,0.34,1.05,42.07,-5.89,-68.81
-0.37,0.35,1.08,39.29,-6.35,-68.3
-0.37,0.34,1.09,34.51,-7.79,-67.39
-0.36,0.3,1.06,28.32,-9.9,-66.13
-0.34,0.25,1.04,21.96,-12.25,-64.82
-0.31,0.21,1.03,16.31,-14.41,-63.48
-0.31,0.21,1.03,16.31,-14.41,-63.48
-0.29,0.18,1.02,11.81,-16.07,-62.01
-0.28,0.15,1.02,8.54,-17.15,-60.46
-0.28,0.13,1.01,6.42,-17.73,-59.02
-0.28,0.13,1.01,5.15,-17.96,-57.7
-0.27,0.12,1.02,4.52,-17.89,-56.39
-0.27,0.12,1.02,4.52,-17.89,-56.39
-0.27,0.12,1.01,4.32,-17.51,-55.06
-0.26,0.11,1.01,4.63,-16.77,-53.57
-0.27,0.11,1.01,5.45,-15.77,-51.81
-0.28,0.12,1.01,6.51,-14.72,-49.82
-0.29,0.13,1.02,7.5,-13.78,-47.73
-0.29,0.13,1.02,7.5,-13.78,-47.73
-0.3,0.14,1.02,8.15,-13.12,-45.63
-0.32,0.16,1.02,8.4,-12.75,-43.57
-0.33,0.18,1.02,8.12,-12.74,-41.59
-0.33,0.19,1.04,7.09,-13.04,-39.71
-0.33,0.21,1.04,5.06,-13.61,-37.88
-0.33,0.21,1.04,5.06,-13.61,-37.88
-0.33,0.22,1.04,1.83,-14.43,-36.02
-0.33,0.21,1.02,-2.41,-15.44,-34.15
-0.32,0.17,0.99,-6.95,-16.49,-32.55
-0.3,0.09,0.94,-10.54,-17.3,-31.52
-0.27,-0.0,0.9,-11.78,-17.5,-30.44
-0.27,-0.0,0.9,-11.78,-17.5,-30.44
-0.27,-0.02,0.91,-10.48,-17.09,-28.45
-0.3,0.01,0.94,-7.65,-16.55,-25.96
-0.31,0.03,0.95,-4.26,-16.08,-23.86
-0.31,0.04,0.95,-0.86,-15.77,-22.3
-0.31,0.04,0.95,2.28,-15.63,-20.95
-0.31,0.04,0.95,2.28,-15.63,-20.95
-0.3,0.05,0.95,5.1,-15.54,-19.7
-0.29,0.07,0.95,7.68,-15.29,-18.54
-0.28,0.08,0.95,10.05,-14.7,-17.41
