ax,ay,az,gx,gy,gz
-0.2,-0.46,0.82,-9.75,-7.19,-5.6
-0.2,-0.46,0.82,-9.75,-7.19,-5.6
-0.18,-0.5,0.8,-11.73,-7.2,-5.8
-0.17,-0.53,0.78,-12.86,-6.94,-5.55
-0.17,-0.55,0.76,-12.87,-6.41,-4.82
-0.16,-0.56,0.76,-11.71,-5.74,-3.62
-0.16,-0.56,0.76,-9.43,-4.95,-2.03
-0.16,-0.56,0.76,-9.43,-4.95,-2.03
-0.17,-0.55,0.76,-6.25,-4.05,-0.1
-0.17,-0.54,0.77,-2.47,-3.08,2.01
-0.19,-0.52,0.78,1.58,-2.07,4.18
-0.21,-0.5,0.79,5.63,-1.05,6.22
-0.24,-0.48,0.8,9.43,-0.03,7.77
-0.24,-0.48,0.8,9.43,-0.03,7.77
-0.26,-0.44,0.82,12.73,0.9,8.69
-0.28,-0.4,0.85,15.15,1.55,8.92
-0.28,-0.36,0.88,16.19,1.8,8.44
-0.27,-0.34,0.89,15.48,1.65,7.38
-0.25,-0.34,0.9,12.95,1.22,5.99
-0.25,-0.34,0.9,12.95,1.22,5.99
-0.24,-0.38,0.88,8.88,0.6,4.52
-0.23,-0.43,0.85,4.02,-0.06,3.16
-0.22,-0.49,0.81,-0.65,-0.66,2.03
-0.21,-0.54,0.78,-4.3,-1.22,1.23
-0.19,-0.57,0.76,-6.4,-1.64,0.84
-0.19,-0.57,0.76,-6.4,-1.64,0.84
-0.19,-0.58,0.75,-6.76,-1.86,0.86
-0.18,-0.58,0.75,-5.6,-1.86,1.24
-0.19,-0.56,0.76,-3.19,-1.65,1.9
-0.2,-0.54,0.77,-0.08,-1.28,2.73
-0.22,-0.51,0.79,3.23,-0.77,3.51
-0.22,-0.51,0.79,3.23,-0.77,3.51
-0.23,-0.48,0.8,6.31,-0.17,4.13
-0.24,-0.45,0.81,8.85,0.43,4.5
-0.25,-0.43,0.83,10.64,0.94,4.66
-0.26,-0.41,0.84,11.55,1.36,4.57
-0.26,-0.4,0.85,11.46,1.54,4.25
-0.26,-0.4,0.85,11.46,1.54,4.25
-0.26,-0.41,0.84,10.49,1.49,3.81
-0.25,-0.43,0.83,8.99,1.24,3.29
-0.25,-0.44,0.82,7.37,0.82,2.77
-0.24,-0.45,0.81,5.92,0.33,2.25
-0.23,-0.46,0.81,4.7,-0.22,1.81
-0.23,-0.46,0.81,4.7,-0.22,1.81
-0.22,-0.46,0.8,3.76,-0.7,1.52
-0.22,-0.47,0.8,3.07,-0.96,1.4
-0.21,-0.47,0.8,2.65,-0.94,1.41
-0.21,-0.47,0.79,2.48,-0.64,1.52
-0.2,-0.48,0.79,2.6,-0.15,1.74
-0.2,-0.48,0.79,2.6,-0.15,1.74
-0.2,-0.48,0.78,3.05,0.5,2.12
-0.21,-0.48,0.79,3.86,1.19,2.67
-0.23,-0.47,0.79,5.03,1.8,3.25
-0.24,-0.46,0.8,6.31,2.23,3.75
-0.24,-0.45,0.82,7.49,2.4,4.15
-0.24,-0.45,0.82,7.49,2.4,4.15
-0.24,-0.44,0.83,8.3,2.39,4.37
-0.25,-0.42,0.84,8.67,2.23,4.37
-0.27,-0.42,0.84,8.54,1.87,4.03
-0.27,-0.41,0.85,7.89,1.29,3.3
-0.26,-0.41,0.85,6.66,0.54,2.18
-0.26,-0.41,0.85,6.66,0.54,2.18
-0.24,-0.42,0.84,4.94,-0.32,0.86
-0.22,-0.44,0.84,2.86,-1.17,-0.5
-0.21,-0.46,0.83,0.6,-1.96,-1.74
-0.2,-0.48,0.81,-1.5,-2.64,-2.74
-0.2,-0.5,0.81,-3.1,-3.22,-3.43
-0.2,-0.5,0.81,-3.1,-3.22,-3.43
-0.21,-0.52,0.8,-4.07,-3.71,-3.78
-0.21,-0.52,0.8,-4.32,-4.11,-3.93
-0.22,-0.51,0.8,-3.87,-4.44,-3.94
-0.22,-0.5,0.81,-2.84,-4.65,-3.82
-0.22,-0.48,0.82,-1.51,-4.7,-3.6
-0.22,-0.48,0.82,-1.51,-4.7,-3.6
-0.22,-0.46,0.83,-0.25,-4.59,-3.29
-0.23,-0.45,0.84,0.71,-4.25,-2.97
-0.24,-0.45,0.84,1.22,-3.78,-2.75
-0.25,-0.44,0.84,1.34,-3.29,-2.76
-0.26,-0.44,0.84,1.23,-2.87,-2.96
-0.26,-0.44,0.84,1.23,-2.87,-2.96
-0.26,-0.43,0.84,0.92,-2.57,-3.27
-0.26,-0.42,0.84,0.41,-2.48,-3.6
-0.26,-0.42,0.83,-0.24,-2.63,-3.94
-0.25,-0.42,0.83,-1.03,-2.94,-4.24
-0.24,-0.43,0.82,-1.84,-3.31,-4.46
-0.24,-0.43,0.82,-1.84,-3.31,-4.46
-0.23,-0.44,0.82,-2.64,-3.65,-4.57
-0.23,-0.44,0.81,-3.26,-3.92,-4.62
-0.22,-0.45,0.81,-3.7,-4.11,-4.63
-0.21,-0.45,0.81,-3.89,-4.18,-4.53
-0.2,-0.45,0.81,-3.81,-4.04,-4.35
-0.2,-0.45,0.81,-3.81,-4.04,-4.35
-0.2,-0.44,0.81,-3.54,-3.67,-4.04
-0.19,-0.44,0.81,-3.12,-3.02,-3.65
-0.18,-0.43,0.81,-2.69,-2.04,-3.19
-0.17,-0.43,0.81,-2.21,-0.77,-2.64
-0.18,-0.42,0.81,-1.7,0.82,-1.96
-0.18,-0.42,0.81,-1.7,0.82,-1.96
-0.19,-0.41,0.81,-1.1,2.49,-1.2
-0.19,-0.39,0.81,-0.41,4.0,-0.4
-0.2,-0.38,0.82,0.25,5.18,0.45
-0.21,-0.36,0.84,0.71,6.0,1.32
-0.22,-0.35,0.85,0.85,6.41,2.19
-0.22,-0.35,0.85,0.85,6.41,2.19
-0.23,-0.34,0.85,0.63,6.37,2.93
-0.23,-0.33,0.86,0.14,5.85,3.51
-0.22,-0.32,0.87,-0.53,4.89,3.99
-0.21,-0.32,0.88,-1.44,3.6,4.46
-0.19,-0.32,0.89,-2.6,2.13,5.02
-0.19,-0.32,0.89,-2.6,2.13,5.02
-0.18,-0.32,0.89,-3.98,0.76,5.67
-0.17,-0.32,0.89,-5.47,-0.28,6.37
-0.17,-0.32,0.9,-6.98,-0.91,7.05
-0.16,-0.32,0.91,-8.44,-1.11,7.72
-0.14,-0.32,0.92,-9.82,-1.01,8.5
-0.14,-0.32,0.92,-9.82,-1.01,8.5
-0.14,-0.33,0.92,-11.04,-0.77,9.53
-0.15,-0.34,0.93,-11.98,-0.53,10.8
-0.16,-0.34,0.93,-12.52,-0.44,12.27
-0.17,-0.34,0.93,-12.55,-0.69,13.88
-0.16,-0.33,0.94,-12.09,-1.28,15.51
-0.16,-0.33,0.94,-12.09,-1.28,15.51
-0.16,-0.32,0.95,-11.35,-2.16,17.15
-0.15,-0.31,0.96,-10.56,-3.31,18.81
-0.15,-0.3,0.96,-9.9,-4.6,20.45
-0.14,-0.3,0.96,-9.52,-6.02,21.97
-0.13,-0.3,0.96,-9.46,-7.59,23.34
-0.13,-0.3,0.96,-9.46,-7.59,23.34
-0.12,-0.31,0.96,-9.7,-9.29,24.59
-0.12,-0.33,0.95,-10.25,-11.15,25.58
-0.11,-0.34,0.94,-11.14,-13.26,26.17
-0.1,-0.35,0.93,-12.29,-15.68,26.3
-0.1,-0.35,0.93,-13.64,-18.4,25.91
-0.08,-0.36,0.93,-13.64,-18.4,25.91
-0.04,-0.37,0.93,-15.3,-21.33,25.13
0.0,-0.39,0.92,-17.46,-24.28,24.09
0.04,-0.43,0.9,-19.88,-27.05,22.97
0.08,-0.46,0.88,-22.14,-29.49,21.92
0.08,-0.46,0.88,-23.99,-31.41,21.11
0.11,-0.49,0.88,-23.99,-31.41,21.11
0.13,-0.52,0.88,-25.41,-32.66,20.59
0.15,-0.55,0.88,-26.33,-33.22,20.31
0.16,-0.57,0.88,-26.71,-33.09,20.1
0.17,-0.6,0.89,-26.55,-32.36,19.82
0.17,-0.6,0.89,-26.55,-32.36,19.82
0.15,-0.61,0.92,-25.9,-31.1,19.48
0.1,-0.6,0.96,-24.81,-29.34,19.09
0.04,-0.58,1.01,-23.54,-27.26,18.42
-0.03,-0.55,1.04,-22.57,-25.27,17.32
-0.07,-0.53,1.05,-22.2,-23.87,15.72
-0.07,-0.53,1.05,-22.2,-23.87,15.72
-0.09,-0.51,1.06,-22.28,-23.41,13.76
-0.09,-0.49,1.08,-22.83,-24.06,11.75
-0.09,-0.49,1.08,-23.88,-25.74,9.96
-0.08,-0.5,1.06,-25.39,-28.24,8.41
-0.05,-0.52,1.04,-27.04,-31.31,7.09
-0.05,-0.52,1.04,-27.04,-31.31,7.09
-0.02,-0.56,1.02,-28.58,-34.54,5.98
0.02,-0.59,0.99,-29.78,-37.49,5.22
0.04,-0.64,0.96,-30.39,-39.93,4.74
0.06,-0.68,0.94,-30.41,-41.86,4.34
0.02,-0.7,0.89,-29.52,-42.86,3.87
0.02,-0.7,0.89,-29.52,-42.86,3.87
-0.01,-0.71,0.85,-27.36,-42.95,3.37
-0.01,-0.68,0.87,-24.23,-43.09,2.35
-0.01,-0.62,0.89,-20.75,-42.65,0.84
-0.02,-0.58,0.91,-17.69,-42.08,-0.9
-0.03,-0.55,0.93,-15.9,-41.63,-2.75
-0.03,-0.55,0.93,-15.9,-41.63,-2.75
-0.04,-0.55,0.92,-15.67,-41.41,-4.54
-0.05,-0.57,0.9,-16.77,-41.51,-6.23
-0.06,-0.61,0.87,-18.77,-41.9,-7.82
-0.06,-0.65,0.85,-21.06,-42.46,-9.39
-0.06,-0.68,0.82,-23.04,-42.82,-10.83
-0.06,-0.68,0.82,-23.04,-42.82,-10.83
-0.06,-0.72,0.8,-24.43,-42.87,-12.28
-0.06,-0.75,0.78,-25.24,-42.19,-13.99
-0.05,-0.78,0.75,-25.31,-40.71,-15.78
-0.05,-0.8,0.73,-24.55,-38.6,-17.5
-0.05,-0.81,0.71,-22.99,-35.78,-18.95
-0.05,-0.81,0.71,-22.99,-35.78,-18.95
-0.05,-0.82,0.71,-20.73,-32.48,-20.09
-0.07,-0.82,0.71,-18.04,-28.99,-21.0
-0.1,-0.81,0.7,-15.19,-25.31,-21.65
-0.16,-0.8,0.7,-12.28,-21.74,-22.24
-0.22,-0.79,0.71,-9.41,-18.67,-23.04
-0.22,-0.79,0.71,-9.41,-18.67,-23.04
-0.26,-0.77,0.72,-6.9,-16.4,-24.13
-0.29,-0.75,0.72,-5.07,-15.19,-25.55
-0.3,-0.74,0.73,-4.17,-15.22,-27.35
-0.3,-0.74,0.72,-4.29,-16.52,-29.34
-0.3,-0.71,0.78,-5.61,-18.85,-31.53
-0.3,-0.71,0.78,-5.61,-18.85,-31.53
-0.19,-0.7,0.72,-9.68,-21.85,-33.25
-0.21,-0.86,0.63,-15.38,-25.58,-32.19
-0.2,-0.94,0.58,-18.39,-28.15,-32.8
-0.18,-0.93,0.56,-19.47,-28.3,-36.45
-0.15,-0.93,0.57,-19.73,-27.6,-40.48
-0.15,-0.93,0.57,-19.73,-27.6,-40.48
-0.1,-0.91,0.57,-20.06,-25.27,-43.93
-0.07,-0.91,0.56,-21.07,-21.46,-46.28
-0.09,-0.94,0.53,-22.02,-16.15,-47.58
-0.12,-0.96,0.49,-21.79,-9.26,-48.81
-0.19,-0.97,0.49,-20.15,-1.59,-49.59
-0.19,-0.97,0.49,-20.15,-1.59,-49.59
-0.27,-0.96,0.52,-17.55,5.65,-50.1
-0.3,-0.96,0.52,-14.63,11.96,-51.13
-0.29,-0.97,0.51,-11.6,16.9,-52.67
-0.25,-0.98,0.51,-8.43,20.31,-54.22
-0.23,-0.97,0.53,-5.18,22.4,-55.54
-0.23,-0.97,0.53,-5.18,22.4,-55.54
-0.23,-0.95,0.53,-1.78,23.61,-56.76
-0.24,-0.92,0.53,1.57,24.35,-58.32
-0.25,-0.9,0.55,4.46,24.77,-60.27
-0.25,-0.87,0.57,6.37,25.12,-62.4
-0.25,-0.85,0.58,6.95,25.65,-64.73
-0.25,-0.85,0.58,6.95,25.65,-64.73
-0.24,-0.84,0.59,6.24,26.68,-67.28
-0.23,-0.86,0.59,4.67,28.41,-69.99
-0.22,-0.87,0.59,2.42,30.77,-72.7
-0.19,-0.89,0.58,-0.39,33.41,-75.14
-0.18,-0.92,0.56,-3.54,36.1,-77.14
-0.18,-0.92,0.56,-3.54,36.1,-77.14
-0.19,-0.95,0.53,-6.37,38.71,-78.72
-0.2,-0.97,0.51,-7.98,41.17,-80.12
-0.2,-0.98,0.49,-8.05,43.32,-81.28
-0.2,-0.98,0.48,-6.99,44.77,-82.1
-0.2,-0.99,0.47,-4.96,45.38,-82.44
-0.2,-0.99,0.47,-4.96,45.38,-82.44
-0.21,-0.97,0.47,-1.84,45.35,-82.35
-0.22,-0.95,0.48,2.25,45.0,-82.42
-0.23,-0.92,0.51,7.0,44.65,-82.94
-0.22,-0.88,0.55,11.77,44.37,-83.72
-0.22,-0.84,0.59,15.86,44.16,-84.59
-0.22,-0.84,0.59,15.86,44.16,-84.59
-0.23,-0.8,0.62,18.8,44.13,-85.58
-0.24,-0.76,0.66,20.36,44.51,-86.71
-0.24,-0.75,0.66,20.24,45.09,-88.1
-0.23,-0.76,0.66,18.47,45.63,-89.72
-0.23,-0.78,0.66,15.52,45.92,-90.91
-0.23,-0.78,0.66,15.52,45.92,-90.91
-0.24,-0.81,0.64,12.07,45.83,-91.83
-0.24,-0.84,0.62,8.89,45.48,-92.75
-0.24,-0.86,0.6,6.53,44.96,-93.59
-0.24,-0.87,0.58,5.13,44.18,-94.36
-0.22,-0.85,0.56,4.85,43.13,-94.92
-0.22,-0.85,0.56,4.85,43.13,-94.92
-0.2,-0.81,0.56,5.72,41.91,-95.13
-0.2,-0.77,0.57,7.39,40.62,-95.06
-0.19,-0.73,0.58,9.32,39.31,-94.93
-0.19,-0.71,0.58,11.15,38.01,-94.62
-0.19,-0.7,0.6,12.61,36.61,-94.08
-0.19,-0.7,0.6,12.61,36.61,-94.08
-0.19,-0.71,0.61,13.69,35.26,-93.33
-0.19,-0.72,0.63,14.52,34.14,-92.55
-0.19,-0.73,0.64,15.12,33.29,-91.78
-0.18,-0.74,0.64,15.63,32.8,-91.27
-0.18,-0.73,0.63,16.14,32.81,-91.11
-0.18,-0.73,0.63,16.14,32.81,-91.11
-0.18,-0.71,0.62,16.48,33.11,-91.26
-0.16,-0.7,0.62,16.56,33.47,-91.56
-0.12,-0.68,0.62,16.18,34.02,-92.08
-0.1,-0.67,0.62,15.23,34.6,-92.35
-0.09,-0.66,0.61,13.59,35.21,-92.26
-0.09,-0.66,0.61,13.59,35.21,-92.26
-0.09,-0.67,0.59,11.48,35.77,-91.98
-0.09,-0.69,0.58,9.24,36.3,-91.43
-0.12,-0.71,0.57,7.33,36.7,-90.57
-0.16,-0.72,0.57,6.18,37.2,-89.73
-0.19,-0.73,0.56,5.9,37.8,-89.21
-0.19,-0.73,0.56,5.9,37.8,-89.21
-0.21,-0.71,0.56,6.34,38.43,-88.9
-0.22,-0.68,0.58,7.23,39.07,-88.76
-0.21,-0.66,0.58,8.47,39.65,-88.51
-0.2,-0.64,0.61,10.24,40.32,-88.03
-0.2,-0.61,0.63,12.29,41.22,-87.2
-0.2,-0.61,0.63,12.29,41.22,-87.2
-0.21,-0.56,0.67,14.22,42.32,-85.89
-0.22,-0.53,0.71,15.39,43.41,-84.26
-0.22,-0.52,0.72,15.22,44.27,-82.39
-0.24,-0.53,0.73,13.62,44.56,-80.19
-0.25,-0.55,0.7,11.17,44.22,-78.04
-0.25,-0.55,0.7,11.17,44.22,-78.04
-0.24,-0.57,0.67,8.78,43.38,-76.16
-0.22,-0.58,0.67,6.92,41.99,-74.47
-0.21,-0.56,0.67,5.27,40.06,-72.83
-0.2,-0.53,0.66,3.44,37.72,-71.48
-0.18,-0.49,0.66,1.17,35.05,-70.54
-0.18,-0.49,0.66,1.17,35.05,-70.54
-0.14,-0.49,0.66,-1.86,32.26,-70.23
-0.1,-0.52,0.67,-5.56,29.8,-70.06
-0.07,-0.54,0.67,-9.79,28.06,-69.5
-0.05,-0.56,0.67,-14.23,27.27,-68.54
-0.05,-0.61,0.65,-18.42,27.65,-67.2
-0.05,-0.61,0.65,-18.42,27.65,-67.2
-0.07,-0.64,0.64,-21.91,29.13,-65.5
-0.09,-0.66,0.62,-24.25,31.64,-63.69
-0.12,-0.65,0.59,-25.03,34.88,-61.81
-0.17,-0.63,0.59,-24.1,38.54,-60.0
-0.2,-0.59,0.6,-21.79,42.2,-58.6
-0.2,-0.59,0.6,-21.79,42.2,-58.6
-0.23,-0.54,0.62,-18.82,45.25,-57.61
-0.24,-0.51,0.63,-15.9,47.26,-56.73
-0.25,-0.47,0.65,-13.5,48.05,-55.73
-0.26,-0.44,0.66,-11.72,47.78,-54.61
-0.26,-0.42,0.67,-10.55,46.79,-53.53
-0.26,-0.42,0.67,-10.55,46.79,-53.53
-0.25,-0.4,0.68,-9.9,45.29,-52.51
-0.24,-0.39,0.69,-9.72,43.42,-51.37
-0.23,-0.4,0.7,-10.04,41.3,-49.98
-0.23,-0.39,0.7,-10.78,39.16,-48.26
-0.24,-0.39,0.7,-11.94,37.13,-46.34
-0.24,-0.39,0.7,-11.94,37.13,-46.34
-0.22,-0.4,0.69,-12.99,35.34,-44.63
-0.22,-0.4,0.7,-13.82,34.04,-42.53
-0.25,-0.37,0.72,-14.68,33.05,-39.8
-0.29,-0.38,0.72,-15.74,32.23,-37.55
-0.29,-0.41,0.7,-16.1,31.64,-36.42
-0.29,-0.41,0.7,-16.1,31.64,-36.42
-0.27,-0.44,0.71,-15.69,31.35,-35.89
-0.25,-0.45,0.75,-15.01,30.99,-34.56
-0.25,-0.4,0.78,-14.51,30.58,-31.63
-0.28,-0.36,0.79,-14.45,29.99,-28.28
-0.29,-0.38,0.79,-14.28,29.11,-25.83
-0.29,-0.38,0.79,-14.28,29.11,-25.83
-0.3,-0.42,0.78,-13.49,27.97,-23.68
-0.32,-0.41,0.79,-12.2,26.15,-21.2
-0.33,-0.39,0.82,-10.64,23.59,-18.82
-0.31,-0.34,0.84,-9.09,20.62,-17.05
-0.28,-0.31,0.87,-8.06,17.44,-15.97
-0.28,-0.31,0.87,-8.06,17.44,-15.97
-0.24,-0.31,0.88,-7.72,14.23,-15.54
-0.21,-0.3,0.88,-7.98,11.2,-15.6
-0.19,-0.29,0.89,-8.76,8.38,-15.9
-0.17,-0.29,0.91,-10.07,5.72,-16.44
-0.15,-0.29,0.93,-12.13,3.0,-16.99
-0.15,-0.29,0.93,-12.13,3.0,-16.99
-0.13,-0.32,0.95,-15.26,0.17,-17.26
-0.11,-0.38,0.92,-19.31,-2.78,-17.13
-0.1,-0.45,0.87,-23.2,-5.48,-16.75
-0.07,-0.5,0.82,-25.46,-7.77,-16.38
-0.04,-0.53,0.78,-25.2,-9.19,-16.07
-0.04,-0.53,0.78,-25.2,-9.19,-16.07
-0.0,-0.53,0.77,-22.19,-9.59,-15.62
0.03,-0.51,0.8,-16.7,-9.05,-15.06
0.05,-0.47,0.82,-9.64,-7.6,-14.25
0.06,-0.41,0.84,-1.94,-5.56,-12.96
0.07,-0.34,0.84,5.71,-3.28,-11.52
0.07,-0.34,0.84,5.71,-3.28,-11.52
0.09,-0.28,0.87,12.87,-1.09,-9.96
0.12,-0.23,0.91,19.05,0.52,-8.12
0.15,-0.21,0.94,23.78,1.66,-5.72
0.16,-0.19,0.97,26.84,2.42,-2.61
0.14,-0.19,1.0,28.12,3.01,1.09
0.14,-0.19,1.0,28.12,3.01,1.09
0.08,-0.19,1.01,27.68,3.31,5.01
0.02,-0.2,0.99,25.57,3.12,8.42
-0.02,-0.22,0.96,22.11,2.3,10.7
-0.02,-0.25,0.95,17.95,0.78,11.97
-0.01,-0.27,0.96,13.29,-0.99,12.65
-0.01,-0.27,0.96,13.29,-0.99,12.65
0.01,-0.29,0.94,8.2,-2.69,12.92
0.05,-0.33,0.91,2.99,-3.99,12.75
0.1,-0.38,0.9,-1.68,-4.79,12.53
0.15,-0.43,0.89,-5.33,-4.99,12.76
0.19,-0.47,0.88,-7.73,-4.51,13.84
0.19,-0.47,0.88,-7.73,-4.51,13.84
0.2,-0.49,0.88,-8.82,-3.32,15.71
0.2,-0.5,0.87,-8.54,-1.56,18.14
0.16,-0.5,0.88,-7.05,0.39,21.03
0.09,-0.48,0.89,-4.62,2.14,24.19
0.04,-0.43,0.9,-1.71,3.26,27.24
0.04,-0.43,0.9,-1.71,3.26,27.24
0.01,-0.39,0.91,0.98,3.42,29.84
0.01,-0.37,0.92,2.84,2.4,31.93
0.04,-0.37,0.92,3.64,0.52,33.65
0.07,-0.39,0.93,3.57,-1.65,35.25
0.1,-0.42,0.93,2.77,-3.53,36.78
0.1,-0.42,0.93,2.77,-3.53,36.78
0.13,-0.46,0.92,1.62,-4.66,38.08
0.15,-0.49,0.92,0.51,-4.85,39.11
0.16,-0.52,0.94,-0.17,-4.15,40.07
0.16,-0.56,0.92,-0.18,-2.87,41.09
0.17,-0.47,0.97,0.82,-1.33,42.13
0.17,-0.47,0.97,0.82,-1.33,42.13
0.21,-0.51,1.0,0.8,0.38,43.98
0.13,-0.44,1.0,0.43,1.52,48.17
0.09,-0.46,0.98,-0.3,2.55,50.01
0.11,-0.6,0.95,-0.19,3.14,50.08
0.1,-0.53,0.99,0.56,2.96,51.5
0.1,-0.53,0.99,0.56,2.96,51.5
0.04,-0.5,1.0,0.71,1.8,53.29
0.05,-0.53,0.94,1.74,0.13,53.78
0.08,-0.51,0.96,3.77,-2.21,53.77
0.11,-0.44,1.03,6.02,-5.08,53.94
0.16,-0.36,1.08,7.28,-8.11,53.65
0.16,-0.36,1.08,7.28,-8.11,53.65
0.2,-0.34,1.11,6.53,-10.83,53.18
0.22,-0.38,1.08,3.96,-13.24,53.52
0.23,-0.44,1.03,0.83,-15.32,54.71
0.2,-0.49,1.01,-1.65,-16.91,56.41
0.19,-0.54,1.0,-3.13,-17.75,58.13
0.19,-0.54,1.0,-3.13,-17.75,58.13
0.16,-0.54,1.0,-3.83,-17.79,60.56
0.12,-0.55,0.97,-4.17,-17.48,62.99
0.1,-0.57,0.92,-3.13,-17.44,64.78
0.11,-0.53,0.94,-0.94,-17.66,66.11
0.09,-0.47,0.99,1.13,-18.18,67.94
0.09,-0.47,0.99,1.13,-18.18,67.94
0.06,-0.42,0.96,2.1,-19.24,69.93
0.04,-0.41,0.9,2.12,-21.01,71.1
0.07,-0.44,0.88,2.04,-23.45,71.65
0.09,-0.4,0.89,1.73,-26.25,72.63
0.1,-0.39,0.89,0.77,-28.96,73.53
0.1,-0.39,0.89,0.77,-28.96,73.53
0.11,-0.4,0.88,-0.97,-31.28,74.33
0.08,-0.48,0.83,-3.11,-33.14,76.24
0.03,-0.5,0.78,-4.04,-34.76,79.01
0.01,-0.49,0.77,-3.54,-36.25,81.25
0.0,-0.49,0.79,-2.06,-37.66,83.39
0.0,-0.49,0.79,-2.06,-37.66,83.39
-0.01,-0.45,0.81,-0.71,-38.85,85.86
-0.01,-0.42,0.8,0.05,-39.55,88.35
-0.01,-0.41,0.8,0.12,-39.83,90.83
-0.0,-0.43,0.8,-0.6,-39.81,93.22
0.02,-0.48,0.79,-2.0,-39.43,95.3
0.02,-0.48,0.79,-2.0,-39.43,95.3
0.04,-0.54,0.77,-3.67,-38.68,97.21
0.05,-0.58,0.75,-4.99,-37.62,99.18
0.03,-0.61,0.75,-5.54,-36.3,100.89
-0.0,-0.64,0.74,-5.16,-35.04,102.19
-0.03,-0.64,0.74,-3.89,-34.12,103.15
-0.03,-0.64,0.74,-3.89,-34.12,103.15
-0.05,-0.65,0.75,-1.99,-33.72,103.83
-0.06,-0.66,0.77,0.13,-33.82,104.5
-0.09,-0.66,0.78,1.96,-34.4,105.11
-0.12,-0.68,0.78,3.41,-35.33,105.4
-0.14,-0.69,0.77,4.51,-36.41,105.29
-0.14,-0.69,0.77,4.51,-36.41,105.29
-0.13,-0.7,0.79,5.21,-37.59,104.72
-0.12,-0.71,0.8,5.31,-38.83,103.57
-0.1,-0.74,0.78,4.89,-39.74,102.01
-0.09,-0.76,0.77,4.11,-40.37,100.38
-0.07,-0.81,0.73,3.4,-40.72,98.71
-0.07,-0.81,0.73,3.4,-40.72,98.71
-0.06,-0.86,0.71,3.26,-40.81,97.1
-0.05,-0.9,0.7,3.86,-40.69,95.81
-0.06,-0.93,0.7,5.25,-40.31,94.82
-0.09,-0.95,0.69,7.27,-39.82,93.85
-0.11,-0.96,0.68,9.82,-39.31,92.85
-0.11,-0.96,0.68,9.82,-39.31,92.85
-0.14,-0.97,0.68,12.84,-39.03,91.71
-0.17,-0.96,0.68,16.18,-39.09,90.28
-0.21,-0.95,0.67,19.69,-39.23,88.29
-0.23,-0.91,0.7,23.24,-39.91,85.66
-0.23,-0.88,0.73,26.26,-41.23,82.44
-0.23,-0.88,0.73,26.26,-41.23,82.44
-0.22,-0.84,0.74,28.25,-42.8,78.67
-0.21,-0.82,0.76,28.98,-44.47,74.35
-0.19,-0.8,0.75,28.56,-45.82,69.59
-0.17,-0.78,0.75,27.24,-46.42,64.5
-0.17,-0.78,0.75,25.14,-46.05,59.32
-0.15,-0.77,0.75,25.14,-46.05,59.32
-0.13,-0.78,0.74,22.58,-44.89,54.52
-0.12,-0.79,0.73,19.9,-43.12,50.38
-0.14,-0.82,0.7,17.49,-40.84,46.93
-0.17,-0.83,0.67,15.82,-38.36,44.1
-0.17,-0.83,0.67,15.32,-36.07,41.78
-0.18,-0.84,0.65,15.32,-36.07,41.78
-0.18,-0.83,0.65,16.06,-34.06,39.8
-0.18,-0.8,0.66,17.8,-32.38,38.17
-0.19,-0.76,0.68,20.03,-31.05,36.67
-0.2,-0.73,0.69,22.24,-30.02,35.16
-0.2,-0.73,0.69,22.24,-30.02,35.16
-0.2,-0.69,0.7,24.1,-29.29,33.56
-0.2,-0.66,0.72,25.28,-28.79,31.73
-0.19,-0.64,0.72,25.58,-28.25,29.58
-0.18,-0.63,0.73,25.01,-27.56,27.12
-0.18,-0.61,0.74,23.69,-26.63,24.44
-0.18,-0.61,0.74,23.69,-26.63,24.44
-0.16,-0.6,0.74,21.63,-25.35,21.65
-0.13,-0.59,0.75,18.88,-23.5,18.89
-0.11,-0.6,0.74,15.51,-20.98,16.27
-0.09,-0.61,0.73,11.79,-17.75,13.93
-0.09,-0.64,0.71,8.22,-13.78,12.0
-0.09,-0.64,0.71,8.22,-13.78,12.0
-0.1,-0.66,0.7,5.28,-9.3,10.48
-0.12,-0.66,0.7,3.3,-4.7,9.27
-0.15,-0.65,0.69,2.44,-0.2,8.37
-0.16,-0.63,0.71,2.61,3.86,7.73
-0.16,-0.6,0.74,3.46,7.25,7.33
-0.16,-0.6,0.74,3.46,7.25,7.33
-0.17,-0.57,0.76,4.51,9.98,7.31
-0.19,-0.55,0.78,5.43,11.91,7.51
-0.21,-0.54,0.79,6.08,13.07,7.7
-0.22,-0.52,0.8,6.57,13.57,7.76
-0.21,-0.5,0.82,6.85,13.35,7.63
-0.21,-0.5,0.82,6.85,13.35,7.63
-0.2,-0.49,0.83,6.74,12.82,7.32
-0.18,-0.48,0.84,6.09,12.22,6.83
