ax,ay,az,gx,gy,gz
0.3,0.06,0.96,-2.98,0.51,-2.57
0.29,0.05,0.95,-3.64,1.41,-2.62
0.28,0.05,0.94,-4.06,2.21,-2.66
0.25,0.05,0.95,-4.04,2.95,-2.63
0.25,0.05,0.95,-4.04,2.95,-2.63
0.25,0.05,0.95,-3.7,3.24,-2.54
0.25,0.05,0.95,-3.19,3.08,-2.34
0.25,0.05,0.96,-2.46,2.76,-2.08
0.24,0.06,0.96,-1.59,2.29,-1.74
0.24,0.07,0.96,-0.74,1.7,-1.45
0.24,0.07,0.96,-0.74,1.7,-1.45
0.24,0.08,0.96,0.01,1.06,-1.22
0.24,0.1,0.97,0.57,0.45,-0.98
0.24,0.11,0.98,0.77,-0.14,-0.67
0.24,0.12,0.98,0.48,-0.72,-0.31
0.25,0.12,0.97,-0.26,-1.15,0.04
0.25,0.12,0.97,-0.26,-1.15,0.04
0.26,0.1,0.97,-1.31,-1.42,0.43
0.27,0.08,0.95,-2.42,-1.51,0.89
0.28,0.07,0.95,-3.39,-1.33,1.46
0.27,0.05,0.94,-4.15,-0.91,2.11
0.27,0.04,0.94,-4.59,-0.36,2.77
0.27,0.04,0.94,-4.59,-0.36,2.77
0.26,0.02,0.93,-4.57,0.25,3.35
0.26,0.02,0.93,-4.03,0.84,3.81
0.24,0.03,0.94,-3.04,1.42,4.12
0.24,0.05,0.95,-1.87,1.86,4.26
0.24,0.07,0.96,-0.81,2.05,4.33
0.24,0.07,0.96,-0.81,2.05,4.33
0.24,0.09,0.97,-0.07,2.06,4.42
0.23,0.1,0.98,0.15,1.92,4.51
0.23,0.11,0.98,-0.17,1.56,4.59
0.23,0.1,0.98,-0.93,1.12,4.59
0.24,0.09,0.98,-1.93,0.61,4.53
0.24,0.09,0.98,-1.93,0.61,4.53
0.24,0.08,0.98,-2.96,0.15,4.5
0.25,0.07,0.97,-4.0,-0.24,4.45
0.25,0.08,0.96,-4.83,-0.46,4.29
0.25,0.07,0.97,-5.28,-0.52,3.94
0.25,0.08,0.97,-5.46,-0.51,3.33
0.25,0.08,0.97,-5.46,-0.51,3.33
0.22,0.12,0.98,-5.53,-0.63,2.34
0.18,0.16,0.98,-5.63,-0.61,0.62
0.14,0.21,1.02,-5.89,-0.68,-2.21
0.13,0.25,1.03,-6.6,-1.1,-6.33
0.13,0.29,1.05,-7.69,-1.34,-11.5
0.13,0.29,1.05,-7.69,-1.34,-11.5
0.1,0.32,1.11,-9.05,-2.21,-16.92
0.09,0.34,1.11,-10.88,-4.64,-21.95
0.11,0.35,1.08,-13.02,-8.31,-26.35
0.17,0.38,1.04,-14.89,-13.04,-29.88
0.25,0.42,1.0,-15.81,-18.06,-32.11
0.25,0.42,1.0,-15.81,-18.06,-32.11
0.34,0.47,0.97,-15.61,-23.15,-32.61
0.42,0.53,0.93,-14.25,-27.78,-31.14
0.48,0.58,0.91,-11.55,-31.18,-27.86
0.54,0.6,0.89,-7.95,-32.9,-22.97
0.59,0.6,0.88,-4.12,-32.71,-16.58
0.59,0.6,0.88,-4.12,-32.71,-16.58
0.59,0.59,0.89,-0.42,-30.53,-8.92
0.55,0.57,0.9,3.0,-26.57,-0.79
0.48,0.54,0.9,6.37,-21.73,6.96
0.42,0.52,0.89,10.05,-17.0,13.81
0.4,0.53,0.88,14.09,-13.08,19.66
0.4,0.53,0.88,14.09,-13.08,19.66
0.43,0.56,0.88,18.16,-10.4,24.65
0.48,0.6,0.89,21.66,-8.93,29.19
0.54,0.63,0.9,24.05,-8.51,33.75
0.58,0.66,0.9,24.99,-8.63,38.57
0.61,0.65,0.9,24.41,-8.76,43.84
0.61,0.65,0.9,24.41,-8.76,43.84
0.63,0.61,0.9,22.3,-8.73,49.56
0.65,0.53,0.91,18.89,-8.41,55.61
0.65,0.44,0.92,14.96,-7.68,61.76
0.63,0.35,0.92,11.66,-6.69,67.85
0.62,0.29,0.89,9.88,-5.77,73.67
0.62,0.29,0.89,9.88,-5.77,73.67
0.61,0.26,0.86,10.26,-5.12,78.91
0.62,0.24,0.86,12.77,-4.9,83.44
0.66,0.25,0.87,16.57,-5.22,87.29
0.7,0.27,0.87,20.51,-5.97,90.75
0.75,0.28,0.88,23.8,-6.84,94.14
0.75,0.28,0.88,23.8,-6.84,94.14
0.79,0.26,0.88,25.86,-7.52,97.59
0.8,0.21,0.9,26.35,-7.83,101.16
0.78,0.14,0.95,25.48,-7.47,104.68
0.74,0.06,0.98,24.11,-6.02,107.82
0.65,-0.01,0.98,23.39,-3.99,110.13
0.65,-0.01,0.98,23.39,-3.99,110.13
0.58,-0.05,0.99,23.38,-2.45,111.28
0.57,-0.04,0.99,23.99,-1.91,111.21
0.59,-0.03,1.01,25.29,-2.4,110.26
0.63,-0.0,1.04,26.85,-3.68,108.93
0.66,0.01,1.07,27.81,-5.12,107.56
0.66,0.01,1.07,27.81,-5.12,107.56
0.67,-0.02,1.09,27.68,-6.32,106.47
0.65,-0.06,1.1,26.4,-7.31,105.86
0.61,-0.12,1.12,24.2,-8.12,105.5
0.57,-0.17,1.13,21.43,-8.92,104.95
0.54,-0.23,1.15,18.34,-9.86,103.88
0.54,-0.23,1.15,18.34,-9.86,103.88
0.52,-0.27,1.16,15.1,-11.08,102.18
0.51,-0.28,1.17,12.04,-12.91,99.86
0.51,-0.29,1.19,9.23,-15.57,97.04
0.49,-0.31,1.2,6.23,-19.01,94.13
0.48,-0.34,1.2,2.46,-23.14,91.18
0.48,-0.34,1.2,2.46,-23.14,91.18
0.49,-0.4,1.19,-2.1,-27.72,87.94
0.52,-0.49,1.19,-7.03,-32.45,84.15
0.55,-0.59,1.16,-11.97,-36.94,79.51
0.6,-0.67,1.13,-16.32,-40.9,73.78
0.64,-0.73,1.1,-19.3,-43.75,67.03
0.64,-0.73,1.1,-19.3,-43.75,67.03
0.66,-0.78,1.09,-20.48,-45.21,59.62
0.64,-0.79,1.09,-19.95,-45.23,51.75
0.61,-0.78,1.07,-18.04,-43.75,43.45
0.56,-0.76,1.05,-15.01,-41.08,34.76
0.5,-0.74,1.05,-11.2,-37.69,26.1
0.5,-0.74,1.05,-11.2,-37.69,26.1
0.45,-0.71,1.04,-7.15,-33.91,17.71
0.42,-0.68,1.02,-3.22,-30.17,9.79
0.38,-0.64,1.0,0.35,-26.8,2.45
0.35,-0.61,0.97,3.42,-24.17,-4.03
0.31,-0.58,0.94,5.86,-22.56,-9.34
0.31,-0.58,0.94,5.86,-22.56,-9.34
0.27,-0.57,0.93,7.64,-22.15,-13.29
0.25,-0.55,0.92,8.63,-22.83,-15.8
0.2,-0.53,0.93,8.75,-24.34,-16.91
0.14,-0.52,0.96,7.88,-26.24,-17.2
0.08,-0.51,0.99,5.81,-28.1,-17.41
0.08,-0.51,0.99,5.81,-28.1,-17.41
0.02,-0.5,1.03,2.09,-29.66,-18.3
-0.02,-0.5,1.04,-3.32,-30.61,-20.53
-0.03,-0.52,1.03,-10.19,-30.89,-24.34
-0.0,-0.57,1.01,-17.94,-30.34,-29.23
0.04,-0.64,0.99,-25.6,-28.94,-34.33
0.04,-0.64,0.99,-25.6,-28.94,-34.33
0.08,-0.71,0.99,-32.25,-26.55,-39.1
0.08,-0.78,0.98,-37.13,-23.37,-43.34
0.05,-0.84,0.97,-39.68,-20.01,-46.9
0.01,-0.87,0.97,-39.65,-17.06,-49.81
-0.04,-0.88,0.99,-37.13,-14.87,-52.21
-0.04,-0.88,0.99,-37.13,-14.87,-52.21
-0.1,-0.85,1.02,-32.56,-13.58,-54.58
-0.14,-0.8,1.05,-26.72,-13.23,-57.44
-0.16,-0.72,1.07,-20.57,-13.96,-61.1
-0.15,-0.63,1.1,-14.91,-15.74,-65.43
-0.12,-0.54,1.13,-10.56,-18.38,-70.09
-0.12,-0.54,1.13,-10.56,-18.38,-70.09
-0.07,-0.48,1.16,-8.38,-21.44,-74.76
-0.02,-0.44,1.15,-8.74,-24.61,-79.06
0.0,-0.42,1.11,-11.36,-27.59,-82.61
-0.0,-0.43,1.07,-15.42,-30.22,-85.41
-0.01,-0.44,1.03,-19.93,-32.52,-87.78
-0.01,-0.44,1.03,-19.93,-32.52,-87.78
0.01,-0.44,0.98,-24.23,-34.35,-90.02
0.05,-0.45,0.95,-27.81,-35.5,-92.01
0.07,-0.44,0.94,-30.51,-35.81,-93.49
0.07,-0.44,0.92,-32.52,-35.3,-94.64
0.05,-0.44,0.89,-33.87,-34.27,-95.55
0.05,-0.44,0.89,-33.87,-34.27,-95.55
0.03,-0.46,0.86,-34.24,-33.22,-96.03
0.01,-0.45,0.85,-33.42,-32.63,-96.03
0.0,-0.41,0.85,-31.63,-32.59,-95.76
0.03,-0.35,0.87,-29.25,-32.99,-95.33
0.07,-0.29,0.9,-27.04,-33.41,-94.69
0.07,-0.29,0.9,-27.04,-33.41,-94.69
0.09,-0.23,0.93,-25.69,-33.62,-93.65
0.07,-0.18,0.95,-25.55,-33.48,-92.19
0.02,-0.13,0.95,-26.72,-33.07,-90.45
-0.02,-0.1,0.95,-29.45,-32.6,-88.71
-0.03,-0.09,0.92,-33.82,-32.36,-87.37
-0.03,-0.09,0.92,-33.82,-32.36,-87.37
0.01,-0.1,0.89,-39.46,-32.5,-86.46
0.09,-0.13,0.87,-45.77,-32.7,-85.89
0.16,-0.17,0.86,-51.93,-32.31,-85.56
0.2,-0.2,0.84,-56.96,-30.71,-85.41
0.18,-0.23,0.79,-60.11,-27.53,-85.49
0.18,-0.23,0.79,-60.11,-27.53,-85.49
0.11,-0.22,0.77,-61.3,-23.11,-85.67
0.02,-0.18,0.79,-60.9,-18.32,-85.92
-0.04,-0.12,0.81,-59.63,-13.81,-86.57
-0.05,-0.06,0.82,-58.37,-10.04,-87.92
-0.03,-0.01,0.82,-57.68,-7.12,-89.61
-0.03,-0.01,0.82,-57.68,-7.12,-89.61
-0.01,0.02,0.83,-57.63,-5.15,-91.02
0.03,0.05,0.84,-58.36,-4.0,-91.72
0.06,0.07,0.85,-59.97,-3.5,-91.52
0.09,0.07,0.85,-62.47,-3.27,-90.52
0.09,0.07,0.84,-65.6,-3.01,-88.96
0.09,0.07,0.84,-65.6,-3.01,-88.96
0.07,0.05,0.82,-68.94,-2.74,-87.21
0.04,0.04,0.79,-72.03,-2.53,-85.83
0.04,0.03,0.77,-74.6,-2.51,-84.95
0.08,0.02,0.75,-76.57,-2.53,-84.39
0.12,0.02,0.75,-77.92,-2.48,-83.77
0.12,0.02,0.75,-77.92,-2.48,-83.77
0.16,0.03,0.75,-78.62,-2.13,-82.85
0.19,0.04,0.75,-78.62,-1.39,-81.48
0.2,0.05,0.76,-78.02,-0.23,-79.61
0.2,0.06,0.79,-77.21,1.22,-77.29
0.2,0.06,0.79,-76.66,2.8,-74.66
0.19,0.07,0.81,-76.66,2.8,-74.66
0.16,0.06,0.82,-76.76,4.34,-71.89
0.12,0.05,0.81,-77.34,5.62,-69.28
0.09,0.03,0.79,-78.01,6.39,-67.1
0.08,0.03,0.78,-78.4,6.55,-65.5
0.08,0.03,0.78,-78.21,6.31,-64.54
0.1,0.04,0.77,-78.21,6.31,-64.54
0.14,0.05,0.76,-77.39,6.01,-64.07
0.21,0.05,0.78,-76.06,5.91,-63.68
0.26,0.05,0.82,-74.25,6.34,-63.07
0.28,0.05,0.86,-71.9,7.5,-61.97
0.28,0.05,0.86,-71.9,7.5,-61.97
0.24,0.06,0.9,-69.06,9.26,-60.34
0.18,0.07,0.92,-66.05,11.07,-58.31
0.12,0.07,0.91,-63.34,12.19,-55.93
0.08,0.08,0.9,-61.17,12.0,-53.15
0.07,0.09,0.86,-59.34,10.4,-50.4
0.07,0.09,0.86,-59.34,10.4,-50.4
0.1,0.08,0.83,-57.25,7.78,-47.95
0.15,0.07,0.8,-54.3,4.72,-45.61
0.21,0.08,0.79,-50.36,1.73,-43.19
0.26,0.11,0.82,-45.64,-0.62,-40.93
0.31,0.14,0.86,-40.47,-1.81,-39.18
0.31,0.14,0.86,-40.47,-1.81,-39.18
0.35,0.17,0.91,-35.39,-1.39,-37.95
0.34,0.18,0.97,-31.0,0.52,-36.92
0.3,0.18,1.03,-27.86,3.41,-36.0
0.23,0.17,1.07,-26.36,6.62,-35.39
0.14,0.15,1.06,-26.43,9.6,-35.43
0.14,0.15,1.06,-26.43,9.6,-35.43
0.07,0.13,1.0,-27.38,11.56,-36.13
0.04,0.13,0.94,-28.2,11.92,-37.44
0.07,0.15,0.9,-28.32,10.54,-39.42
0.14,0.18,0.87,-27.58,7.76,-41.78
0.23,0.2,0.83,-26.2,4.35,-44.13
0.23,0.2,0.83,-26.2,4.35,-44.13
0.34,0.22,0.81,-24.24,0.87,-46.11
0.45,0.24,0.83,-21.73,-1.97,-47.3
0.54,0.26,0.86,-18.78,-3.2,-47.46
0.57,0.29,0.92,-15.71,-2.28,-46.34
0.51,0.32,0.99,-13.14,0.78,-44.15
0.51,0.32,0.99,-13.14,0.78,-44.15
0.39,0.33,1.03,-11.91,5.36,-41.61
0.26,0.31,1.05,-12.61,10.23,-39.62
0.16,0.27,1.03,-14.93,14.49,-38.32
0.1,0.24,1.0,-17.74,17.74,-37.46
0.08,0.23,0.96,-19.96,19.75,-37.08
0.08,0.23,0.96,-19.96,19.75,-37.08
0.11,0.25,0.9,-21.05,20.45,-37.62
0.19,0.29,0.88,-20.76,19.74,-39.13
0.31,0.32,0.89,-19.39,17.88,-41.0
0.44,0.33,0.93,-17.68,15.48,-42.49
0.54,0.36,0.96,-16.22,13.38,-43.0
0.54,0.36,0.96,-16.22,13.38,-43.0
0.6,0.38,1.01,-15.35,12.12,-42.17
0.61,0.39,1.06,-15.35,11.79,-39.91
0.53,0.4,1.1,-16.55,12.4,-36.65
0.41,0.37,1.09,-19.23,13.82,-33.52
0.3,0.31,1.07,-23.01,15.35,-31.33
0.3,0.31,1.07,-23.01,15.35,-31.33
0.23,0.25,1.05,-26.84,16.46,-29.83
0.19,0.21,1.03,-29.82,16.99,-28.66
0.18,0.18,0.99,-31.52,16.99,-27.75
0.19,0.16,0.93,-31.76,16.48,-27.19
0.22,0.17,0.89,-30.31,15.35,-26.93
0.22,0.17,0.89,-30.31,15.35,-26.93
0.3,0.2,0.85,-26.95,13.35,-26.83
0.41,0.23,0.86,-21.75,10.48,-26.51
0.51,0.28,0.9,-15.3,7.19,-25.53
0.58,0.34,0.95,-8.43,4.22,-23.74
0.6,0.39,0.99,-1.99,2.11,-21.24
0.6,0.39,0.99,-1.99,2.11,-21.24
0.59,0.43,1.03,3.33,1.0,-18.18
0.55,0.43,1.05,6.79,0.73,-14.8
0.5,0.42,1.06,7.88,0.89,-11.45
0.47,0.39,1.05,6.73,1.47,-8.41
0.44,0.35,1.04,4.02,2.55,-5.72
0.44,0.35,1.04,4.02,2.55,-5.72
0.4,0.29,1.01,0.57,4.05,-3.42
0.38,0.23,0.98,-2.88,5.8,-1.45
0.37,0.2,0.92,-5.54,7.67,0.2
0.37,0.18,0.88,-6.88,9.26,1.35
0.39,0.18,0.86,-6.82,10.19,2.1
0.39,0.18,0.86,-6.82,10.19,2.1
0.43,0.18,0.85,-5.48,10.01,2.84
0.47,0.2,0.85,-3.09,8.81,3.96
0.5,0.21,0.87,0.08,7.05,5.74
0.51,0.25,0.88,3.75,5.16,8.1
0.51,0.29,0.88,7.41,3.28,10.66
0.51,0.29,0.88,7.41,3.28,10.66
0.52,0.31,0.9,10.46,1.67,13.21
0.52,0.32,0.93,12.5,0.77,15.77
0.51,0.3,0.92,13.26,0.79,18.37
0.48,0.27,0.89,12.74,1.56,20.79
0.48,0.22,0.85,11.48,2.78,22.83
0.48,0.22,0.85,11.48,2.78,22.83
0.49,0.17,0.84,10.29,4.19,24.55
0.51,0.14,0.81,9.7,5.85,25.98
0.51,0.13,0.79,9.91,7.64,27.02
0.51,0.13,0.77,10.83,9.26,27.49
0.51,0.15,0.77,12.46,10.46,27.43
0.51,0.15,0.77,12.46,10.46,27.43
0.51,0.18,0.77,14.89,11.09,27.21
0.52,0.21,0.77,18.01,11.03,27.35
0.53,0.25,0.78,21.43,10.17,28.26
0.55,0.29,0.81,24.64,8.78,29.98
0.57,0.33,0.84,27.24,7.52,32.33
0.57,0.33,0.84,27.24,7.52,32.33
0.57,0.33,0.87,28.84,6.8,35.07
0.58,0.31,0.87,29.03,6.56,38.11
0.59,0.26,0.87,27.74,6.66,41.42
0.61,0.18,0.89,25.58,7.44,44.77
0.6,0.11,0.9,23.33,9.13,47.8
0.6,0.11,0.9,23.33,9.13,47.8
0.57,0.04,0.87,21.41,11.29,50.22
0.56,-0.01,0.84,20.14,13.32,51.82
0.56,-0.04,0.82,19.96,14.93,52.55
0.56,-0.04,0.82,21.11,16.01,52.6
0.57,-0.02,0.83,23.43,16.66,52.18
0.57,-0.02,0.83,23.43,16.66,52.18
0.56,0.02,0.82,26.25,16.87,51.53
0.56,0.05,0.81,28.96,16.64,50.86
0.55,0.09,0.8,31.44,16.09,50.33
0.52,0.12,0.8,33.7,15.23,49.98
0.51,0.15,0.79,35.56,14.09,49.83
0.51,0.15,0.79,35.56,14.09,49.83
0.52,0.17,0.8,36.86,12.93,50.01
0.56,0.17,0.85,37.52,12.05,50.71
0.61,0.14,0.9,37.3,12.13,52.05
0.62,0.09,0.92,36.24,13.55,53.86
0.6,0.03,0.91,34.75,15.84,55.91
0.6,0.03,0.91,34.75,15.84,55.91
0.57,-0.03,0.91,33.4,18.34,57.81
0.54,-0.09,0.91,32.67,20.58,59.25
0.53,-0.13,0.9,32.88,22.11,59.97
0.53,-0.14,0.89,34.18,22.41,60.01
0.55,-0.13,0.9,36.43,21.43,59.58
0.55,-0.13,0.9,36.43,21.43,59.58
0.58,-0.08,0.9,39.1,19.5,58.93
0.59,-0.05,0.91,41.36,17.18,58.19
0.59,-0.02,0.91,42.73,14.93,57.36
0.58,-0.0,0.9,43.05,12.96,56.39
0.57,0.01,0.89,42.54,11.37,55.45
0.57,0.01,0.89,42.54,11.37,55.45
0.58,-0.0,0.92,41.49,10.32,54.69
0.59,-0.02,0.95,39.97,10.12,54.3
0.58,-0.05,0.97,38.03,10.86,54.33
0.57,-0.08,0.98,35.86,12.33,54.62
0.55,-0.11,0.97,33.75,14.14,54.96
0.55,-0.11,0.97,33.75,14.14,54.96
0.53,-0.14,0.98,32.0,15.9,55.26
0.51,-0.16,0.98,30.83,17.53,55.33
0.49,-0.17,0.98,30.24,18.73,55.1
0.48,-0.18,0.97,30.16,19.22,54.62
0.48,-0.18,0.96,30.55,19.08,54.04
0.48,-0.18,0.96,30.55,19.08,54.04
0.46,-0.16,0.96,31.35,18.53,53.47
0.43,-0.14,0.96,32.45,17.76,52.95
0.4,-0.12,0.95,33.59,16.76,52.38
0.39,-0.1,0.93,34.58,15.47,51.68
0.38,-0.08,0.93,35.42,13.86,50.95
0.38,-0.08,0.93,35.42,13.86,50.95
0.38,-0.05,0.94,36.12,12.03,50.25
0.39,-0.02,0.96,36.36,10.17,49.69
0.39,-0.01,0.96,35.83,8.41,49.29
0.39,-0.0,0.95,34.28,6.73,49.11
0.41,-0.02,0.94,31.79,5.32,49.14
0.41,-0.02,0.94,31.79,5.32,49.14
0.44,-0.07,0.94,28.68,4.26,49.48
0.46,-0.12,0.92,25.31,3.63,50.09
0.47,-0.18,0.91,22.01,3.44,50.78
0.47,-0.22,0.9,19.18,3.62,51.29
0.46,-0.27,0.9,17.1,4.1,51.43
0.46,-0.27,0.9,17.1,4.1,51.43
0.44,-0.29,0.9,15.79,4.69,51.11
0.42,-0.3,0.9,15.18,5.19,50.3
0.4,-0.29,0.9,15.19,5.36,48.91
0.39,-0.26,0.92,15.6,5.09,46.98
0.39,-0.23,0.94,16.02,4.6,44.68
0.39,-0.23,0.94,16.02,4.6,44.68
0.39,-0.19,0.96,16.01,4.2,42.16
0.38,-0.17,0.96,15.3,4.02,39.51
0.37,-0.15,0.96,13.98,4.15,36.85
0.35,-0.14,0.96,12.42,4.52,34.26
0.35,-0.13,0.96,10.85,5.01,31.83
0.35,-0.13,0.96,10.85,5.01,31.83
0.35,-0.13,0.95,9.45,5.53,29.68
0.36,-0.15,0.95,8.36,6.08,27.9
0.36,-0.16,0.94,7.7,6.66,26.53
0.35,-0.17,0.94,7.61,7.16,25.45
0.33,-0.16,0.92,8.2,7.49,24.45
0.33,-0.16,0.92,8.2,7.49,24.45
0.32,-0.15,0.94,9.43,7.52,23.4
0.32,-0.12,0.95,10.98,7.27,22.25
0.31,-0.1,0.95,12.47,6.86,21.02
0.3,-0.07,0.95,13.55,6.14,19.66
0.3,-0.06,0.94,14.13,5.06,18.26
0.3,-0.06,0.94,14.13,5.06,18.26
0.31,-0.04,0.95,14.31,3.7,16.93
0.32,-0.02,0.96,14.06,2.2,15.71
0.33,-0.02,0.97,13.34,0.72,14.58
0.34,-0.03,0.97,12.08,-0.51,13.48
0.35,-0.03,0.95,10.45,-1.35,12.36
0.35,-0.03,0.95,10.45,-1.35,12.36
0.36,-0.05,0.95,8.78,-1.8,11.22
0.36,-0.06,0.94,7.35,-1.9,10.1
0.36,-0.06,0.93,6.27,-1.72,9.05
0.36,-0.06,0.93,5.64,-1.31,8.07
0.35,-0.05,0.94,5.44,-0.69,7.15
0.35,-0.05,0.94,5.44,-0.69,7.15
0.35,-0.05,0.93,5.54,0.11,6.28
0.35,-0.04,0.93,5.89,1.0,5.56
0.34,-0.04,0.93,6.47,1.84,5.05
0.34,-0.04,0.93,7.28,2.47,4.74
0.33,-0.03,0.94,8.29,2.84,4.51
0.33,-0.03,0.94,8.29,2.84,4.51
0.33,-0.03,0.95,9.43,3.05,4.32
0.33,-0.01,0.96,10.57,3.17,4.05
0.32,0.0,0.98,11.54,3.24,3.64
0.32,0.01,0.99,12.16,3.22,3.1
0.32,0.03,1.0,12.34,3.12,2.49
0.32,0.03,1.0,12.34,3.12,2.49
0.31,0.05,1.01,11.98,2.9,1.89
0.3,0.06,1.01,11.07,2.56,1.23
0.31,0.06,1.01,9.66,2.05,0.47
0.31,0.06,1.01,7.85,1.48,-0.29
0.32,0.05,1.0,5.82,0.93,-1.0
0.32,0.05,1.0,5.82,0.93,-1.0
0.32,0.04,0.98,3.86,0.45,-1.6
0.32,0.03,0.97,2.25,0.01,-2.0
0.32,0.02,0.95,1.08,-0.49,-2.15
0.33,0.01,0.93,0.56,-1.01,-2.05
0.33,-0.0,0.93,0.76,-1.58,-1.75
0.33,-0.0,0.93,0.76,-1.58,-1.75
0.33,0.01,0.93,1.58,-2.14,-1.34
0.34,0.01,0.93,2.89,-2.61,-0.84
0.33,0.02,0.94,4.46,-2.9,-0.35
0.33,0.04,0.93,6.02,-3.08,0.07
0.33,0.05,0.92,7.43,-3.22,0.39
0.33,0.05,0.92,7.43,-3.22,0.39
0.33,0.06,0.93,8.62,-3.31,0.63
0.33,0.09,0.94,9.4,-3.38,0.78
0.33,0.1,0.94,9.57,-3.42,0.84
0.34,0.11,0.94,8.92,-3.37,0.84
0.34,0.1,0.93,7.55,-3.27,0.78
0.34,0.1,0.93,7.55,-3.27,0.78
0.34,0.09,0.91,5.73,-3.13,0.73
0.35,0.07,0.9,3.85,-3.0,0.7
0.35,0.05,0.89,2.2,-2.87,0.74
0.36,0.04,0.89,0.9,-2.68,0.91
0.36,0.03,0.88,0.09,-2.42,1.16
0.36,0.03,0.88,0.09,-2.42,1.16
0.36,0.01,0.88,-0.15,-2.08,1.46
0.36,0.01,0.89,0.18,-1.62,1.74
0.36,0.02,0.89,0.95,-1.04,2.03
0.36,0.03,0.9,1.9,-0.34,2.27
0.36,0.04,0.91,2.8,0.51,2.45
0.36,0.04,0.91,2.8,0.51,2.45
0.36,0.04,0.91,3.54,1.41,2.57
0.35,0.04,0.92,4.15,2.32,2.65
0.34,0.05,0.93,4.65,3.18,2.7
0.33,0.06,0.94,4.93,4.0,2.68
0.32,0.07,0.94,4.95,4.69,2.6
0.32,0.07,0.94,4.95,4.69,2.6
0.32,0.08,0.94,4.69,5.14,2.49
0.32,0.08,0.94,4.19,5.3,2.39
0.32,0.08,0.94,3.48,5.22,2.34
0.33,0.07,0.94,2.6,5.0,2.36
0.33,0.07,0.94,1.67,4.74,2.49
0.33,0.07,0.94,1.67,4.74,2.49
0.33,0.05,0.94,0.8,4.44,2.74
0.33,0.04,0.94,0.04,4.06,3.06
0.33,0.02,0.93,-0.49,3.62,3.38
0.33,0.02,0.93,-0.74,3.14,3.62
0.34,0.01,0.93,-0.71,2.65,3.78
0.34,0.01,0.93,-0.71,2.65,3.78
0.35,0.01,0.92,-0.42,2.24,3.85
0.36,0.01,0.93,0.05,2.02,3.84
0.36,0.02,0.93,0.61,2.09,3.71
0.35,0.03,0.93,1.04,2.4,3.56
0.34,0.04,0.93,1.3,2.72,3.42
0.34,0.04,0.93,1.3,2.72,3.42
0.33,0.05,0.94,1.32,2.99,3.27
0.33,0.04,0.95,1.09,3.08,3.04
0.34,0.04,0.94,0.7,2.93,2.79
0.35,0.04,0.93,0.32,2.76,2.57
0.35,0.04,0.93,-0.07,2.68,2.33
0.35,0.04,0.93,-0.07,2.68,2.33
0.35,0.03,0.93,-0.42,2.66,2.17
0.35,0.02,0.93,-0.61,2.65,2.1
0.34,0.01,0.93,-0.5,2.69,2.09
0.33,0.02,0.93,-0.09,2.73,1.99
0.33,0.03,0.94,0.53,2.75,1.78
0.33,0.03,0.94,0.53,2.75,1.78
0.34,0.03,0.94,1.09,2.81,1.41
0.34,0.04,0.94,1.49,3.01,0.97
0.33,0.05,0.95,1.7,3.34,0.54
0.32,0.06,0.96,1.74,3.61,0.2
