ax,ay,az,gx,gy,gz
-0.09,0.13,0.96,-2.88,3.3,4.69
-0.1,0.13,0.97,-2.66,3.51,4.67
-0.1,0.13,0.97,-2.32,3.61,4.62
-0.11,0.13,0.98,-1.85,3.6,4.47
-0.1,0.14,0.98,-1.28,3.53,4.21
-0.1,0.14,0.98,-1.28,3.53,4.21
-0.1,0.15,0.99,-0.73,3.43,3.9
-0.1,0.16,1.0,-0.37,3.32,3.6
-0.1,0.17,1.0,-0.28,3.18,3.34
-0.11,0.16,1.0,-0.54,2.97,3.09
-0.11,0.16,1.0,-1.04,2.66,2.86
-0.11,0.16,1.0,-1.04,2.66,2.86
-0.1,0.15,0.99,-1.58,2.25,2.62
-0.1,0.15,0.99,-2.04,1.83,2.4
-0.1,0.14,0.99,-2.36,1.48,2.26
-0.1,0.14,0.99,-2.57,1.19,2.2
-0.09,0.14,0.99,-2.66,1.0,2.2
-0.09,0.14,0.99,-2.66,1.0,2.2
-0.09,0.13,0.99,-2.6,0.85,2.24
-0.09,0.13,0.98,-2.35,0.77,2.27
-0.09,0.13,0.98,-1.94,0.75,2.32
-0.09,0.14,0.98,-1.4,0.79,2.4
-0.09,0.14,0.98,-0.82,0.76,2.51
-0.09,0.14,0.98,-0.82,0.76,2.51
-0.09,0.15,0.98,-0.3,0.65,2.66
-0.1,0.15,0.98,0.09,0.38,2.81
-0.1,0.15,0.99,0.4,0.05,2.86
-0.1,0.15,0.99,0.63,-0.32,2.88
-0.1,0.16,0.99,0.75,-0.67,2.84
-0.1,0.16,0.99,0.75,-0.67,2.84
-0.1,0.16,0.99,0.69,-1.01,2.78
-0.1,0.16,0.99,0.44,-1.37,2.63
-0.1,0.15,0.99,0.08,-1.8,2.45
-0.1,0.15,0.98,-0.3,-2.25,2.24
-0.09,0.14,0.98,-0.53,-2.65,2.03
-0.09,0.14,0.98,-0.53,-2.65,2.03
-0.08,0.14,0.98,-0.68,-3.0,1.82
-0.08,0.15,0.98,-0.8,-3.28,1.67
-0.07,0.14,0.97,-0.9,-3.41,1.52
-0.07,0.14,0.96,-0.91,-3.41,1.41
-0.07,0.13,0.96,-0.76,-3.25,1.37
-0.07,0.13,0.96,-0.76,-3.25,1.37
-0.07,0.13,0.95,-0.41,-3.02,1.35
-0.07,0.13,0.96,0.14,-2.67,1.41
-0.07,0.14,0.96,0.8,-2.28,1.5
-0.08,0.14,0.96,1.56,-1.9,1.66
-0.08,0.15,0.96,2.29,-1.54,1.83
-0.08,0.15,0.96,2.29,-1.54,1.83
-0.09,0.16,0.96,2.92,-1.25,1.99
-0.09,0.17,0.97,3.34,-1.02,2.11
-0.1,0.18,0.97,3.46,-0.9,2.17
-0.11,0.18,0.97,3.28,-0.88,2.16
-0.11,0.18,0.98,2.82,-1.0,2.08
-0.11,0.18,0.98,2.82,-1.0,2.08
-0.11,0.18,0.98,2.09,-1.24,1.86
-0.11,0.17,0.97,1.24,-1.54,1.58
-0.1,0.16,0.97,0.33,-1.9,1.31
-0.1,0.15,0.97,-0.56,-2.26,1.11
-0.09,0.15,0.96,-1.27,-2.57,0.98
-0.09,0.15,0.96,-1.27,-2.57,0.98
-0.09,0.14,0.96,-1.73,-2.78,0.9
-0.09,0.13,0.95,-1.91,-2.86,0.87
-0.08,0.13,0.95,-1.78,-2.84,0.93
-0.08,0.14,0.95,-1.33,-2.71,1.07
-0.08,0.14,0.95,-0.67,-2.47,1.25
-0.08,0.14,0.95,-0.67,-2.47,1.25
-0.08,0.15,0.95,0.08,-2.19,1.46
-0.08,0.16,0.95,0.8,-1.89,1.64
-0.08,0.17,0.96,1.41,-1.59,1.8
-0.07,0.17,0.96,1.84,-1.24,1.97
-0.08,0.18,0.96,2.05,-0.84,2.09
-0.08,0.18,0.96,2.05,-0.84,2.09
-0.08,0.18,0.96,2.01,-0.42,2.17
-0.08,0.17,0.96,1.79,0.0,2.16
-0.07,0.17,0.96,1.47,0.39,2.12
-0.07,0.16,0.96,1.11,0.76,2.09
-0.08,0.16,0.96,0.77,1.1,2.1
-0.08,0.16,0.96,0.77,1.1,2.1
-0.08,0.15,0.96,0.49,1.34,2.11
-0.08,0.15,0.96,0.34,1.48,2.15
-0.08,0.15,0.97,0.32,1.51,2.21
-0.08,0.15,0.98,0.49,1.52,2.3
-0.09,0.15,0.98,0.79,1.58,2.37
-0.09,0.15,0.98,0.79,1.58,2.37
-0.09,0.16,0.98,1.16,1.61,2.43
-0.1,0.16,0.98,1.49,1.6,2.46
-0.1,0.17,0.98,1.72,1.46,2.4
-0.1,0.17,0.99,1.78,1.19,2.28
-0.1,0.18,0.99,1.7,0.81,2.09
-0.1,0.18,0.99,1.7,0.81,2.09
-0.1,0.18,0.99,1.48,0.36,1.89
-0.1,0.18,0.99,1.08,-0.13,1.63
-0.09,0.18,0.98,0.5,-0.61,1.36
-0.08,0.17,0.99,-0.2,-1.02,1.08
-0.08,0.17,0.98,-0.89,-1.31,0.84
-0.08,0.17,0.98,-0.89,-1.31,0.84
-0.07,0.16,0.98,-1.51,-1.45,0.66
-0.07,0.15,0.97,-1.97,-1.46,0.55
-0.07,0.14,0.96,-2.23,-1.39,0.52
-0.07,0.14,0.96,-2.22,-1.23,0.55
-0.07,0.14,0.96,-1.95,-1.01,0.62
-0.07,0.14,0.96,-1.95,-1.01,0.62
-0.08,0.15,0.96,-1.49,-0.75,0.76
-0.08,0.16,0.97,-0.93,-0.5,0.97
-0.09,0.16,0.97,-0.4,-0.33,1.2
-0.09,0.17,0.97,-0.01,-0.29,1.42
-0.1,0.18,0.98,0.17,-0.32,1.58
-0.1,0.18,0.98,0.17,-0.32,1.58
-0.1,0.18,0.98,0.14,-0.44,1.66
-0.1,0.17,0.98,-0.06,-0.66,1.7
-0.1,0.17,0.98,-0.37,-0.98,1.67
-0.09,0.16,0.98,-0.75,-1.38,1.58
-0.09,0.16,0.98,-1.15,-1.76,1.44
-0.09,0.16,0.98,-1.15,-1.76,1.44
-0.08,0.16,0.98,-1.55,-2.09,1.27
-0.07,0.15,0.97,-1.93,-2.32,1.11
-0.07,0.15,0.97,-2.27,-2.41,0.96
-0.06,0.14,0.96,-2.46,-2.35,0.83
-0.07,0.14,0.96,-2.46,-2.2,0.75
-0.07,0.14,0.96,-2.46,-2.2,0.75
-0.07,0.13,0.96,-2.22,-1.96,0.7
-0.07,0.14,0.95,-1.76,-1.67,0.73
-0.07,0.14,0.96,-1.18,-1.32,0.82
-0.07,0.15,0.96,-0.53,-0.94,0.95
-0.08,0.16,0.96,0.08,-0.51,1.08
-0.08,0.16,0.96,0.08,-0.51,1.08
-0.09,0.16,0.96,0.65,-0.06,1.23
-0.09,0.17,0.96,1.15,0.4,1.34
-0.1,0.18,0.96,1.47,0.74,1.41
-0.1,0.18,0.97,1.61,0.89,1.4
-0.1,0.18,0.97,1.55,0.84,1.32
-0.1,0.18,0.97,1.55,0.84,1.32
-0.11,0.19,0.97,1.34,0.61,1.18
-0.1,0.18,0.98,0.94,0.23,0.98
-0.1,0.18,0.98,0.38,-0.22,0.74
-0.09,0.18,0.98,-0.28,-0.67,0.51
-0.09,0.18,0.98,-0.99,-1.03,0.27
-0.09,0.18,0.98,-0.99,-1.03,0.27
-0.08,0.17,0.97,-1.7,-1.24,0.06
-0.07,0.16,0.97,-2.27,-1.29,-0.07
-0.07,0.15,0.96,-2.55,-1.17,-0.11
-0.06,0.15,0.95,-2.47,-0.9,-0.05
-0.06,0.15,0.96,-2.06,-0.53,0.12
-0.06,0.15,0.96,-2.06,-0.53,0.12
-0.07,0.15,0.96,-1.39,-0.12,0.38
-0.08,0.16,0.96,-0.57,0.32,0.68
-0.09,0.18,0.97,0.25,0.77,0.98
-0.09,0.19,0.97,0.94,1.16,1.26
-0.1,0.2,0.98,1.37,1.4,1.45
-0.1,0.2,0.98,1.37,1.4,1.45
-0.1,0.2,0.98,1.49,1.55,1.57
-0.1,0.2,0.98,1.26,1.55,1.6
-0.1,0.2,0.98,0.77,1.32,1.63
-0.1,0.2,0.98,0.05,0.96,1.57
-0.1,0.2,0.98,-0.85,0.45,1.45
-0.1,0.2,0.98,-0.85,0.45,1.45
-0.09,0.19,0.98,-1.88,-0.09,1.29
-0.09,0.18,0.97,-2.97,-0.58,1.13
-0.09,0.17,0.96,-4.0,-1.07,0.99
-0.08,0.16,0.96,-4.83,-1.49,0.92
-0.08,0.16,0.95,-5.34,-1.78,0.95
-0.08,0.16,0.95,-5.34,-1.78,0.95
-0.07,0.15,0.95,-5.53,-1.94,1.02
-0.06,0.16,0.95,-5.44,-1.89,1.15
-0.06,0.16,0.95,-5.13,-1.6,1.31
-0.06,0.17,0.95,-4.68,-1.18,1.48
-0.06,0.18,0.95,-4.13,-0.64,1.63
-0.06,0.18,0.95,-4.13,-0.64,1.63
-0.06,0.19,0.95,-3.53,-0.06,1.73
-0.06,0.2,0.96,-3.05,0.52,1.82
-0.07,0.22,0.96,-2.8,1.06,1.9
-0.07,0.23,0.96,-2.88,1.48,1.95
-0.08,0.23,0.96,-3.26,1.74,1.95
-0.08,0.23,0.96,-3.26,1.74,1.95
-0.07,0.23,0.96,-3.87,1.84,1.89
-0.07,0.24,0.95,-4.62,1.81,1.84
-0.06,0.25,0.95,-5.42,1.74,1.78
-0.06,0.27,0.95,-6.24,1.67,1.62
-0.05,0.28,0.95,-7.15,1.63,1.37
-0.05,0.28,0.95,-7.15,1.63,1.37
-0.04,0.29,0.95,-8.19,1.63,1.13
-0.05,0.3,0.95,-9.28,1.69,0.92
-0.05,0.31,0.95,-10.4,1.87,0.66
-0.07,0.3,0.94,-11.41,2.06,0.3
-0.07,0.31,0.93,-12.22,2.23,-0.05
-0.07,0.31,0.93,-12.22,2.23,-0.05
-0.08,0.33,0.92,-12.73,2.3,-0.33
-0.09,0.35,0.9,-12.98,2.21,-0.59
-0.08,0.4,0.89,-12.98,1.81,-0.91
-0.07,0.44,0.88,-12.92,1.08,-1.26
-0.05,0.49,0.88,-13.08,0.12,-1.43
-0.05,0.49,0.88,-13.08,0.12,-1.43
-0.04,0.52,0.89,-13.69,-0.96,-1.21
-0.04,0.52,0.9,-14.76,-1.98,-0.41
-0.03,0.46,0.89,-16.62,-2.79,0.71
-0.0,0.4,0.9,-19.06,-3.83,2.05
0.03,0.34,0.91,-21.38,-4.9,4.09
0.03,0.34,0.91,-21.38,-4.9,4.09
0.05,0.3,0.9,-22.77,-5.19,6.78
0.05,0.25,0.9,-22.7,-4.37,9.75
0.06,0.24,0.92,-21.19,-2.96,12.64
0.1,0.27,0.95,-18.69,-1.06,15.12
0.13,0.3,0.99,-15.59,1.39,17.05
0.13,0.3,0.99,-15.59,1.39,17.05
0.14,0.32,1.01,-12.3,4.19,18.68
0.12,0.34,1.01,-9.15,7.09,20.29
0.06,0.35,1.01,-6.35,9.6,22.07
0.02,0.36,1.01,-4.1,11.21,24.05
-0.02,0.37,1.02,-2.52,11.95,26.31
-0.02,0.37,1.02,-2.52,11.95,26.31
-0.06,0.39,1.04,-1.55,12.03,28.77
-0.08,0.4,1.05,-1.31,11.41,31.08
-0.09,0.41,1.07,-2.01,10.27,33.24
-0.1,0.41,1.08,-3.8,8.55,35.44
-0.1,0.39,1.08,-6.71,6.3,37.76
-0.1,0.39,1.08,-6.71,6.3,37.76
-0.09,0.36,1.08,-10.47,3.8,40.08
-0.08,0.31,1.07,-14.66,1.35,42.18
-0.05,0.25,1.05,-18.68,-0.84,44.18
-0.02,0.2,1.04,-21.97,-2.67,46.17
0.01,0.15,1.03,-24.4,-4.18,48.27
0.01,0.15,1.03,-24.4,-4.18,48.27
0.02,0.13,1.01,-25.9,-5.25,50.36
0.02,0.1,0.99,-26.3,-5.75,52.45
0.02,0.09,0.99,-25.63,-5.88,54.51
0.01,0.09,1.0,-24.35,-5.85,56.41
0.02,0.09,1.0,-22.82,-5.81,58.12
0.02,0.09,1.0,-22.82,-5.81,58.12
0.01,0.09,1.01,-21.25,-5.53,59.62
0.0,0.1,1.02,-19.8,-5.0,61.01
-0.0,0.11,1.03,-18.81,-4.58,62.22
-0.01,0.12,1.03,-18.6,-4.36,63.2
-0.02,0.11,1.04,-19.12,-4.35,63.97
-0.02,0.11,1.04,-19.12,-4.35,63.97
-0.03,0.11,1.04,-20.29,-4.42,64.54
-0.04,0.09,1.04,-21.98,-4.5,64.91
-0.04,0.06,1.03,-24.1,-4.83,65.1
-0.03,0.03,1.03,-26.46,-5.35,65.19
-0.02,-0.0,1.03,-28.76,-5.98,65.28
-0.02,-0.0,1.03,-28.76,-5.98,65.28
-0.01,-0.02,1.02,-30.75,-6.62,65.07
0.0,-0.02,1.03,-32.23,-6.98,64.5
0.02,-0.01,1.03,-33.19,-7.14,63.64
0.03,-0.0,1.05,-33.74,-6.98,62.64
0.01,0.0,1.06,-34.05,-6.55,61.66
0.01,0.0,1.06,-34.05,-6.55,61.66
-0.01,0.0,1.06,-34.36,-5.95,60.77
-0.03,-0.01,1.06,-34.81,-5.39,60.02
-0.03,-0.04,1.06,-35.35,-4.91,59.42
-0.04,-0.06,1.07,-35.76,-4.63,59.08
-0.05,-0.08,1.07,-35.87,-4.3,58.6
-0.05,-0.08,1.07,-35.87,-4.3,58.6
-0.05,-0.08,1.06,-35.38,-3.86,57.68
-0.03,-0.07,1.06,-34.34,-3.51,56.5
-0.01,-0.04,1.06,-33.12,-3.46,55.31
-0.0,-0.03,1.06,-32.13,-3.66,54.2
-0.0,-0.03,1.05,-31.53,-4.14,53.13
-0.0,-0.03,1.05,-31.53,-4.14,53.13
-0.01,-0.03,1.05,-31.32,-4.77,52.16
-0.02,-0.04,1.05,-31.35,-5.44,51.32
-0.05,-0.05,1.06,-31.58,-6.12,50.65
-0.07,-0.07,1.05,-32.01,-6.83,50.02
-0.09,-0.08,1.03,-32.55,-7.73,49.42
-0.09,-0.08,1.03,-32.55,-7.73,49.42
-0.08,-0.1,1.02,-33.15,-8.98,48.52
-0.05,-0.12,1.01,-33.55,-10.49,47.34
-0.02,-0.14,1.02,-33.52,-11.95,46.14
0.01,-0.15,1.02,-33.06,-13.23,44.88
0.03,-0.15,1.02,-32.09,-14.16,43.47
0.03,-0.15,1.02,-32.09,-14.16,43.47
0.03,-0.15,1.01,-30.82,-14.8,41.96
0.05,-0.19,1.0,-29.32,-15.38,40.37
0.03,-0.21,0.99,-27.31,-15.61,39.23
0.0,-0.23,0.99,-25.18,-15.91,38.38
-0.01,-0.24,0.98,-22.82,-16.47,37.48
-0.01,-0.24,0.98,-22.82,-16.47,37.48
-0.03,-0.23,0.99,-20.53,-17.23,36.47
-0.03,-0.23,0.99,-18.87,-18.34,35.03
-0.02,-0.25,0.99,-17.75,-19.71,33.24
-0.01,-0.26,1.0,-16.85,-21.09,31.5
0.0,-0.26,1.01,-15.97,-22.13,29.68
0.0,-0.26,1.01,-15.97,-22.13,29.68
0.0,-0.25,1.02,-15.05,-22.66,27.54
0.0,-0.24,1.02,-14.39,-22.76,25.09
0.0,-0.23,1.01,-14.19,-22.88,22.41
0.02,-0.24,1.01,-14.76,-23.37,19.48
0.04,-0.25,1.01,-15.92,-23.98,16.53
0.04,-0.25,1.01,-15.92,-23.98,16.53
0.05,-0.26,1.0,-17.11,-24.23,13.64
0.05,-0.27,0.99,-18.11,-24.05,10.74
0.06,-0.26,0.98,-18.84,-23.45,7.85
0.07,-0.25,0.97,-19.49,-22.66,5.11
0.07,-0.25,0.97,-20.17,-21.8,2.47
0.07,-0.25,0.97,-20.17,-21.8,2.47
0.06,-0.26,0.96,-20.89,-20.83,-0.23
0.05,-0.28,0.95,-21.34,-19.69,-3.16
0.04,-0.29,0.96,-21.11,-18.41,-6.3
0.02,-0.3,0.96,-19.9,-16.69,-9.41
0.02,-0.29,0.96,-17.91,-14.67,-12.43
0.02,-0.29,0.96,-17.91,-14.67,-12.43
0.01,-0.27,0.98,-15.53,-12.9,-15.34
0.01,-0.24,0.99,-13.18,-11.35,-18.01
-0.0,-0.22,1.01,-11.04,-10.01,-20.32
-0.03,-0.21,1.04,-9.44,-8.95,-22.32
-0.05,-0.2,1.04,-8.41,-8.12,-24.11
-0.05,-0.2,1.04,-8.41,-8.12,-24.11
-0.07,-0.18,1.04,-7.78,-7.46,-25.69
-0.08,-0.17,1.05,-7.51,-6.98,-27.07
-0.09,-0.17,1.05,-7.72,-6.81,-28.23
-0.09,-0.18,1.05,-8.47,-6.95,-29.22
-0.09,-0.18,1.05,-9.59,-7.37,-30.1
-0.08,-0.19,1.04,-9.59,-7.37,-30.1
-0.07,-0.22,1.03,-10.73,-7.95,-30.99
-0.07,-0.24,1.04,-11.6,-8.72,-31.94
-0.08,-0.26,1.03,-12.01,-9.34,-33.13
-0.09,-0.27,1.02,-11.79,-9.75,-34.63
-0.09,-0.27,1.02,-10.89,-10.08,-36.46
-0.1,-0.26,1.02,-10.89,-10.08,-36.46
-0.1,-0.24,1.01,-9.47,-10.33,-38.39
-0.1,-0.22,1.02,-7.89,-10.62,-40.2
-0.1,-0.18,1.03,-6.72,-11.13,-41.81
-0.1,-0.16,1.03,-6.31,-11.79,-43.16
-0.1,-0.16,1.03,-6.31,-11.79,-43.16
-0.09,-0.16,1.04,-6.8,-12.62,-44.23
-0.08,-0.17,1.03,-8.23,-13.55,-45.01
-0.06,-0.19,1.02,-10.38,-14.54,-45.53
-0.05,-0.22,1.01,-12.86,-15.43,-45.81
-0.05,-0.25,1.0,-15.27,-16.14,-45.96
-0.05,-0.25,1.0,-15.27,-16.14,-45.96
-0.06,-0.27,0.98,-17.35,-16.61,-46.1
-0.07,-0.29,0.97,-18.89,-16.93,-46.36
-0.08,-0.3,0.97,-19.83,-17.14,-46.83
-0.08,-0.3,0.97,-20.18,-17.27,-47.54
-0.08,-0.29,0.99,-20.05,-17.25,-48.46
-0.08,-0.29,0.99,-20.05,-17.25,-48.46
-0.08,-0.27,1.01,-19.74,-17.04,-49.41
-0.09,-0.25,1.02,-19.68,-16.68,-50.23
-0.09,-0.24,1.03,-20.15,-16.27,-50.87
-0.09,-0.25,1.02,-21.19,-15.93,-51.46
-0.09,-0.27,1.02,-22.54,-15.7,-52.05
-0.09,-0.27,1.02,-22.54,-15.7,-52.05
-0.09,-0.28,1.01,-23.92,-15.52,-52.72
-0.08,-0.3,0.99,-24.98,-15.31,-53.46
-0.08,-0.32,0.97,-25.38,-14.96,-54.14
-0.07,-0.33,0.96,-24.98,-14.48,-54.65
-0.07,-0.33,0.95,-23.73,-13.87,-54.99
-0.07,-0.33,0.95,-23.73,-13.87,-54.99
-0.07,-0.33,0.95,-21.85,-13.29,-55.36
-0.09,-0.33,0.96,-19.45,-12.72,-55.78
-0.1,-0.32,0.94,-16.71,-12.13,-56.29
-0.11,-0.3,0.94,-13.8,-11.63,-56.85
-0.11,-0.28,0.94,-10.91,-11.29,-57.15
-0.11,-0.28,0.94,-10.91,-11.29,-57.15
-0.12,-0.26,0.95,-8.21,-11.18,-57.07
-0.14,-0.23,0.97,-6.05,-11.55,-57.13
-0.14,-0.22,0.96,-4.6,-12.34,-57.77
-0.13,-0.22,0.95,-3.55,-13.23,-58.58
-0.13,-0.21,0.95,-3.05,-14.11,-59.47
-0.13,-0.21,0.95,-3.05,-14.11,-59.47
-0.12,-0.23,0.94,-2.72,-15.1,-60.08
-0.11,-0.23,0.94,-2.15,-16.16,-59.86
-0.11,-0.21,0.95,-1.65,-17.34,-59.21
-0.12,-0.19,0.95,-1.35,-18.47,-58.51
-0.12,-0.18,0.94,-1.21,-19.53,-57.75
-0.12,-0.18,0.94,-1.21,-19.53,-57.75
-0.13,-0.17,0.95,-1.3,-20.5,-56.75
-0.14,-0.17,0.94,-1.56,-21.38,-55.61
-0.14,-0.17,0.94,-1.88,-22.11,-54.72
-0.12,-0.18,0.94,-2.01,-22.53,-54.23
-0.11,-0.18,0.94,-1.85,-22.43,-54.11
-0.11,-0.18,0.94,-1.85,-22.43,-54.11
-0.09,-0.18,0.94,-1.34,-21.69,-54.14
-0.09,-0.17,0.93,-0.16,-20.31,-54.43
-0.09,-0.17,0.93,1.83,-18.26,-55.01
-0.1,-0.14,0.93,4.36,-15.64,-55.59
-0.11,-0.11,0.92,6.62,-13.07,-55.91
-0.11,-0.11,0.92,6.62,-13.07,-55.91
-0.11,-0.08,0.9,8.11,-11.33,-55.98
-0.1,-0.08,0.9,9.03,-10.33,-55.78
-0.08,-0.08,0.91,9.48,-9.91,-55.3
-0.06,-0.07,0.91,9.29,-10.12,-54.57
-0.06,-0.07,0.91,8.52,-10.78,-53.69
-0.06,-0.07,0.91,8.52,-10.78,-53.69
-0.05,-0.07,0.91,7.41,-11.58,-52.68
-0.04,-0.08,0.91,6.3,-12.26,-51.63
-0.03,-0.09,0.91,5.37,-12.74,-50.63
-0.03,-0.09,0.9,4.75,-12.97,-49.55
-0.03,-0.08,0.89,4.57,-12.94,-48.39
-0.03,-0.08,0.89,4.57,-12.94,-48.39
-0.02,-0.07,0.9,4.75,-12.64,-47.27
-0.02,-0.05,0.91,5.03,-12.15,-46.35
-0.01,-0.05,0.91,5.18,-11.49,-45.61
-0.01,-0.04,0.92,5.01,-10.68,-44.95
-0.02,-0.03,0.92,4.46,-9.8,-44.43
-0.02,-0.03,0.92,4.46,-9.8,-44.43
-0.02,-0.03,0.92,3.59,-8.88,-44.32
-0.01,-0.02,0.92,2.46,-7.91,-44.71
0.0,-0.02,0.92,1.11,-6.88,-45.45
0.01,-0.01,0.91,-0.28,-5.87,-46.27
0.01,-0.01,0.9,-1.59,-4.91,-47.01
0.01,-0.01,0.9,-1.59,-4.91,-47.01
0.01,0.01,0.9,-2.79,-4.02,-47.57
-0.0,0.01,0.89,-3.87,-3.17,-47.83
-0.02,0.02,0.88,-4.82,-2.47,-47.87
-0.02,0.01,0.88,-5.71,-1.93,-47.69
-0.03,-0.0,0.88,-6.57,-1.67,-47.25
-0.03,-0.0,0.88,-6.57,-1.67,-47.25
-0.03,-0.01,0.87,-7.25,-1.64,-46.45
-0.05,-0.01,0.86,-7.53,-1.8,-45.45
-0.06,0.0,0.85,-7.25,-2.17,-44.62
-0.06,0.03,0.85,-6.55,-2.78,-44.25
-0.05,0.05,0.87,-5.65,-3.66,-44.38
-0.05,0.05,0.87,-5.65,-3.66,-44.38
-0.03,0.08,0.88,-4.68,-4.52,-45.05
-0.02,0.12,0.89,-3.86,-5.1,-46.24
0.01,0.15,0.91,-3.57,-5.43,-47.74
-0.01,0.18,0.95,-4.16,-5.64,-49.25
0.07,0.13,1.0,-6.01,-5.84,-51.76
0.07,0.13,1.0,-6.01,-5.84,-51.76
0.06,0.12,0.98,-9.46,-5.29,-52.4
0.01,0.1,0.96,-13.95,-4.95,-51.73
0.02,0.05,0.94,-18.22,-4.63,-52.29
0.07,-0.01,0.92,-20.9,-3.94,-53.56
0.06,-0.02,0.91,-21.74,-2.64,-53.5
0.06,-0.02,0.91,-21.74,-2.64,-53.5
0.03,-0.01,0.89,-21.0,-1.38,-53.03
0.03,-0.0,0.88,-18.79,-0.42,-53.18
0.06,-0.01,0.87,-15.39,0.4,-53.16
0.07,0.04,0.86,-11.55,1.16,-51.92
0.07,0.09,0.87,-7.82,1.5,-49.92
0.07,0.09,0.87,-7.82,1.5,-49.92
0.1,0.14,0.9,-4.36,1.67,-48.28
0.12,0.16,0.92,-1.29,2.19,-46.99
0.11,0.17,0.93,1.13,3.41,-45.57
0.08,0.17,0.93,2.72,5.12,-44.28
0.05,0.17,0.94,3.52,7.15,-43.16
0.05,0.17,0.94,3.52,7.15,-43.16
0.03,0.18,0.94,3.6,9.24,-41.91
0.01,0.19,0.94,2.89,11.07,-40.95
0.02,0.2,0.94,1.78,12.54,-40.69
0.05,0.21,0.95,0.47,13.96,-40.95
0.06,0.2,0.97,-1.03,15.55,-41.27
0.06,0.2,0.97,-1.03,15.55,-41.27
0.06,0.2,0.97,-2.82,17.34,-41.32
0.05,0.19,0.96,-4.95,19.09,-40.9
0.05,0.18,0.95,-7.38,20.45,-40.27
0.06,0.14,0.95,-9.86,21.32,-39.65
0.08,0.11,0.95,-12.11,21.9,-38.85
0.08,0.11,0.95,-12.11,21.9,-38.85
0.09,0.07,0.96,-14.01,22.32,-37.73
0.09,0.05,0.97,-15.35,22.86,-36.38
0.09,0.03,0.97,-15.75,23.75,-35.08
0.09,0.02,0.97,-15.07,25.13,-33.84
0.09,0.03,0.99,-13.42,26.96,-32.63
0.09,0.03,0.99,-13.42,26.96,-32.63
0.08,0.06,1.0,-11.04,29.16,-31.58
0.07,0.08,1.02,-8.25,31.59,-30.9
0.07,0.09,1.03,-5.33,34.15,-30.62
0.06,0.11,1.03,-2.4,36.81,-30.52
0.04,0.12,1.03,0.65,39.6,-30.55
0.04,0.12,1.03,0.65,39.6,-30.55
0.02,0.13,1.04,3.77,42.51,-30.78
0.01,0.12,1.04,6.84,45.35,-31.13
-0.0,0.12,1.04,9.68,47.87,-31.42
-0.03,0.13,1.04,12.21,49.91,-31.45
-0.05,0.13,1.02,14.54,51.34,-31.21
-0.05,0.13,1.02,14.54,51.34,-31.21
-0.09,0.13,1.01,16.81,52.06,-30.65
-0.13,0.15,0.99,18.87,51.85,-29.6
-0.16,0.17,0.98,20.55,50.54,-28.17
-0.16,0.19,0.96,21.88,48.28,-26.45
-0.14,0.19,0.96,22.71,44.86,-24.49
-0.14,0.19,0.96,22.71,44.86,-24.49
-0.1,0.22,0.96,22.78,40.3,-22.53
-0.07,0.24,0.97,22.26,35.74,-20.78
-0.03,0.25,1.0,21.43,31.75,-19.26
-0.01,0.25,1.01,20.03,28.3,-17.97
-0.01,0.26,1.02,17.9,25.59,-16.8
-0.01,0.26,1.02,17.9,25.59,-16.8
-0.02,0.25,1.04,15.24,23.7,-15.67
-0.03,0.23,1.04,12.05,22.46,-14.64
-0.03,0.19,1.03,8.31,21.52,-13.73
-0.03,0.15,1.02,4.37,20.63,-12.72
-0.02,0.09,1.02,0.94,19.75,-11.49
-0.02,0.09,1.02,0.94,19.75,-11.49
-0.04,0.07,1.01,-1.54,18.93,-9.84
-0.06,0.06,0.99,-3.18,17.82,-8.04
-0.05,0.06,0.99,-3.76,16.13,-6.43
-0.02,0.07,1.01,-3.04,14.18,-5.35
0.01,0.1,1.03,-1.68,12.2,-4.68
0.01,0.1,1.03,-1.68,12.2,-4.68
0.02,0.14,1.04,-0.45,10.25,-3.88
0.04,0.16,1.04,0.41,8.25,-3.12
0.08,0.15,1.04,1.12,6.34,-2.41
0.1,0.16,1.06,1.73,4.76,-1.38
0.1,0.18,1.08,2.02,3.6,-0.23
0.1,0.18,1.08,2.02,3.6,-0.23
0.08,0.19,1.1,1.81,3.06,0.7
0.06,0.19,1.09,1.02,2.99,1.18
0.05,0.2,1.08,-0.41,2.94,1.37
