ax,ay,az,gx,gy,gz
-0.03,0.09,1.01,3.21,1.16,-2.14
-0.03,0.09,1.01,3.21,1.16,-2.14
-0.03,0.08,1.01,2.2,0.5,-1.8
-0.02,0.08,1.01,1.29,-0.23,-1.44
-0.01,0.07,1.01,0.48,-0.87,-1.04
-0.01,0.05,1.0,-0.24,-1.38,-0.63
-0.0,0.04,1.0,-0.83,-1.84,-0.21
-0.0,0.04,1.0,-0.83,-1.84,-0.21
0.0,0.04,0.99,-1.26,-2.28,0.14
0.0,0.04,0.98,-1.41,-2.48,0.37
0.01,0.03,0.99,-1.3,-2.43,0.44
0.02,0.03,0.99,-1.08,-2.17,0.34
0.03,0.04,0.99,-0.88,-1.73,0.22
0.03,0.04,0.99,-0.88,-1.73,0.22
0.02,0.04,0.99,-0.69,-1.06,0.14
0.0,0.04,0.99,-0.47,-0.29,0.05
-0.01,0.04,0.99,-0.19,0.4,-0.14
-0.02,0.05,0.99,0.11,0.86,-0.44
-0.01,0.06,0.99,0.34,1.07,-0.77
-0.01,0.06,0.99,0.34,1.07,-0.77
-0.01,0.06,1.0,0.47,1.09,-1.04
-0.01,0.06,1.0,0.5,0.93,-1.19
-0.02,0.06,1.0,0.39,0.63,-1.25
-0.02,0.06,0.99,0.21,0.15,-1.27
-0.02,0.06,0.99,0.01,-0.52,-1.27
-0.02,0.06,0.99,0.01,-0.52,-1.27
-0.01,0.06,0.99,-0.11,-1.23,-1.26
-0.0,0.07,0.99,-0.14,-1.87,-1.25
0.01,0.07,1.0,-0.14,-2.29,-1.24
0.01,0.07,0.99,-0.21,-2.51,-1.2
0.01,0.07,0.99,-0.35,-2.59,-1.15
0.01,0.07,0.99,-0.35,-2.59,-1.15
0.02,0.07,0.99,-0.53,-2.46,-1.09
0.02,0.06,0.99,-0.72,-2.14,-1.09
0.02,0.06,0.98,-0.79,-1.56,-1.11
0.02,0.06,0.98,-0.77,-0.79,-1.13
0.0,0.07,0.98,-0.62,0.03,-1.2
0.0,0.07,0.98,-0.62,0.03,-1.2
-0.01,0.08,0.98,-0.39,0.76,-1.3
-0.01,0.08,0.99,-0.21,1.27,-1.44
-0.02,0.09,1.0,-0.22,1.59,-1.24
-0.02,0.1,1.0,-0.59,1.66,-0.8
-0.01,0.08,0.99,-1.07,1.41,-0.73
-0.01,0.08,0.99,-1.07,1.41,-0.73
0.0,0.06,0.99,-1.34,1.18,-0.85
0.0,0.05,0.99,-1.49,0.96,-0.76
-0.0,0.04,0.98,-1.34,0.85,-0.47
-0.01,0.03,0.98,-0.73,0.81,-0.26
-0.01,0.05,0.99,0.21,0.8,-0.1
-0.01,0.05,0.99,0.21,0.8,-0.1
-0.01,0.08,1.01,1.02,0.74,-0.05
-0.0,0.1,1.01,1.31,0.54,-0.3
0.01,0.11,1.01,0.91,0.29,-0.65
0.01,0.1,1.0,-0.01,0.09,-0.78
-0.0,0.1,0.99,-1.2,-0.07,-0.67
-0.0,0.1,0.99,-1.2,-0.07,-0.67
-0.01,0.09,0.99,-2.31,-0.25,-0.53
-0.01,0.08,0.98,-3.2,-0.42,-0.4
-0.01,0.07,0.98,-3.94,-0.64,-0.3
-0.0,0.06,0.98,-4.57,-0.97,-0.27
0.01,0.04,0.97,-4.93,-1.38,-0.19
0.01,0.04,0.97,-4.93,-1.38,-0.19
0.02,0.03,0.97,-4.87,-1.66,0.05
0.02,0.01,0.96,-4.22,-1.72,0.4
0.02,0.01,0.96,-2.96,-1.55,0.78
0.01,0.03,0.96,-1.18,-1.13,0.99
0.0,0.05,0.97,0.84,-0.62,0.93
0.0,0.05,0.97,0.84,-0.62,0.93
0.0,0.07,0.98,2.7,-0.22,0.69
0.0,0.09,0.99,4.09,0.01,0.46
0.01,0.12,0.99,4.8,0.03,0.31
0.01,0.13,0.99,4.75,-0.09,0.17
0.01,0.12,1.0,4.01,-0.14,0.01
0.01,0.12,1.0,4.01,-0.14,0.01
0.02,0.1,0.98,2.76,-0.1,-0.12
0.02,0.07,0.97,1.36,-0.02,-0.21
0.02,0.05,0.96,0.21,0.16,-0.26
0.02,0.03,0.96,-0.41,0.45,-0.21
0.02,0.03,0.96,-0.41,0.87,-0.14
0.02,0.03,0.96,-0.41,0.87,-0.14
0.01,0.03,0.97,0.08,1.38,-0.16
0.0,0.03,0.97,0.94,1.96,-0.29
0.0,0.04,0.97,2.06,2.55,-0.46
-0.0,0.06,0.98,3.28,3.04,-0.54
-0.01,0.08,0.99,4.4,3.36,-0.5
-0.01,0.08,0.99,4.4,3.36,-0.5
-0.02,0.1,1.0,5.11,3.41,-0.31
-0.02,0.1,1.02,5.17,3.15,-0.05
-0.02,0.1,1.02,4.53,2.67,0.14
-0.01,0.08,1.02,3.41,2.18,0.2
-0.01,0.07,1.02,2.13,1.8,0.21
-0.01,0.07,1.02,2.13,1.8,0.21
-0.01,0.05,1.02,0.89,1.61,0.24
-0.01,0.03,1.01,-0.21,1.51,0.27
-0.01,0.02,1.01,-1.03,1.47,0.28
-0.01,0.01,1.01,-1.43,1.58,0.22
-0.0,0.01,1.0,-1.37,1.87,0.11
-0.0,0.01,1.0,-1.37,1.87,0.11
-0.0,0.01,0.99,-0.94,2.27,0.01
-0.01,0.02,0.99,-0.28,2.65,-0.07
-0.03,0.02,0.99,0.47,2.97,-0.18
-0.04,0.03,0.99,1.21,3.19,-0.37
-0.05,0.04,0.99,1.87,3.19,-0.7
-0.05,0.04,0.99,1.87,3.19,-0.7
-0.05,0.05,0.99,2.33,2.9,-1.08
-0.04,0.06,0.98,2.47,2.35,-1.47
-0.04,0.08,0.98,2.26,1.61,-1.9
-0.03,0.08,0.98,1.66,0.76,-2.34
-0.03,0.09,0.98,0.67,-0.1,-2.79
-0.03,0.09,0.98,0.67,-0.1,-2.79
-0.03,0.09,0.97,-0.62,-0.91,-3.25
-0.03,0.1,0.96,-2.11,-1.73,-3.72
-0.03,0.11,0.95,-3.71,-2.47,-4.17
-0.03,0.12,0.95,-5.36,-3.12,-4.58
-0.02,0.13,0.95,-7.06,-3.69,-4.94
-0.02,0.13,0.95,-7.06,-3.69,-4.94
-0.02,0.14,0.93,-8.83,-4.17,-5.2
-0.01,0.14,0.92,-10.57,-4.51,-5.33
-0.01,0.15,0.9,-12.02,-4.73,-5.25
-0.01,0.17,0.9,-12.97,-4.8,-4.91
-0.01,0.21,0.9,-13.67,-5.05,-4.47
-0.01,0.21,0.9,-13.67,-5.05,-4.47
0.01,0.26,0.88,-14.32,-5.23,-4.07
0.03,0.3,0.87,-14.86,-5.26,-3.53
0.05,0.35,0.86,-15.24,-5.35,-2.73
0.08,0.39,0.86,-15.62,-5.29,-1.73
0.08,0.39,0.86,-16.07,-4.88,-0.44
0.1,0.44,0.84,-16.07,-4.88,-0.44
0.11,0.48,0.84,-16.59,-4.07,1.33
0.12,0.5,0.85,-17.23,-2.82,3.79
0.16,0.5,0.86,-18.07,-1.13,7.2
0.19,0.49,0.88,-18.84,1.13,11.62
0.19,0.49,0.88,-19.24,4.03,16.62
0.22,0.5,0.89,-19.24,4.03,16.62
0.24,0.52,0.92,-18.9,7.59,21.87
0.26,0.54,0.96,-17.67,11.86,27.26
0.26,0.55,1.01,-15.75,16.75,32.9
0.22,0.55,1.04,-13.4,22.02,38.77
0.22,0.55,1.04,-13.4,22.02,38.77
0.17,0.55,1.07,-10.71,27.26,44.82
0.1,0.54,1.11,-7.9,32.09,51.04
0.04,0.51,1.13,-5.14,36.4,57.18
-0.02,0.46,1.13,-2.39,39.71,62.94
-0.05,0.42,1.14,0.34,41.29,68.14
-0.05,0.42,1.14,0.34,41.29,68.14
-0.07,0.4,1.14,3.11,41.0,72.79
-0.05,0.37,1.14,5.8,38.98,77.09
-0.02,0.31,1.14,7.97,35.24,81.53
0.02,0.25,1.13,9.29,30.09,86.3
0.05,0.18,1.11,9.84,23.84,91.17
0.05,0.18,1.11,9.84,23.84,91.17
0.08,0.1,1.08,9.86,16.82,95.87
0.12,0.03,1.05,9.48,9.31,100.1
0.2,-0.03,1.03,8.74,1.77,103.32
0.28,-0.09,1.02,7.68,-5.04,104.87
0.36,-0.18,0.98,6.78,-10.23,104.32
0.36,-0.18,0.98,6.78,-10.23,104.32
0.43,-0.28,0.94,6.58,-13.31,101.96
0.49,-0.4,0.92,7.24,-14.49,98.75
0.49,-0.47,0.93,8.78,-13.71,95.68
0.4,-0.49,0.95,11.36,-10.85,92.8
0.25,-0.45,1.01,15.04,-6.22,89.26
0.25,-0.45,1.01,15.04,-6.22,89.26
0.1,-0.4,1.11,19.25,-0.75,84.36
-0.01,-0.34,1.23,22.58,4.87,77.96
-0.11,-0.26,1.31,24.05,10.13,70.27
-0.2,-0.17,1.35,23.61,14.68,61.61
-0.27,-0.09,1.37,21.71,17.92,52.44
-0.27,-0.09,1.37,21.71,17.92,52.44
-0.29,-0.03,1.42,18.22,18.86,43.49
-0.29,-0.0,1.42,12.48,16.95,35.64
-0.28,0.02,1.35,4.36,11.88,29.61
-0.26,0.01,1.25,-4.98,3.78,25.37
-0.19,-0.03,1.17,-13.83,-6.35,22.54
-0.19,-0.03,1.17,-13.83,-6.35,22.54
-0.07,-0.1,1.14,-21.01,-17.29,20.96
0.06,-0.18,1.1,-25.53,-27.12,20.89
0.12,-0.23,0.98,-26.5,-34.16,22.15
0.14,-0.26,0.9,-24.19,-39.08,24.33
0.18,-0.28,0.87,-18.93,-41.84,26.92
0.18,-0.28,0.87,-18.93,-41.84,26.92
0.23,-0.3,0.85,-11.14,-41.74,29.14
0.27,-0.29,0.81,-1.26,-38.96,30.68
0.27,-0.2,0.78,10.51,-34.18,31.74
0.25,-0.1,0.82,23.22,-27.99,32.47
0.22,-0.02,0.92,35.29,-21.14,33.01
0.22,-0.02,0.92,35.29,-21.14,33.01
0.19,0.03,1.02,44.97,-13.98,33.49
0.13,0.06,1.05,50.77,-6.85,33.79
0.02,0.06,1.04,52.49,-0.53,33.71
-0.06,0.01,1.03,51.01,4.13,32.8
-0.05,-0.09,1.06,47.16,6.55,30.83
-0.05,-0.09,1.06,47.16,6.55,30.83
-0.0,-0.17,1.07,41.92,7.17,28.24
-0.02,-0.18,1.05,36.83,6.75,25.34
-0.07,-0.14,1.06,32.79,5.16,21.72
-0.09,-0.11,1.13,29.17,1.87,17.29
-0.07,-0.1,1.18,24.72,-2.77,12.4
-0.07,-0.1,1.18,24.72,-2.77,12.4
-0.02,-0.1,1.17,18.98,-7.89,7.35
0.01,-0.13,1.13,12.48,-12.68,2.24
0.05,-0.18,1.1,6.17,-16.67,-2.85
0.08,-0.25,1.08,0.72,-19.54,-7.75
0.11,-0.32,1.06,-3.4,-20.99,-12.14
0.11,-0.32,1.06,-3.4,-20.99,-12.14
0.07,-0.3,1.0,-5.55,-20.93,-15.72
-0.02,-0.22,0.94,-5.19,-19.69,-18.75
-0.09,-0.11,0.96,-2.64,-17.86,-21.81
-0.09,-0.03,1.03,0.76,-16.18,-24.98
-0.05,0.02,1.08,3.17,-14.62,-27.99
-0.05,0.02,1.08,3.17,-14.62,-27.99
-0.04,0.04,1.06,3.66,-12.75,-30.61
-0.06,0.02,1.02,2.49,-10.83,-32.72
-0.05,-0.03,1.01,0.19,-9.59,-34.29
-0.01,-0.09,1.01,-3.01,-9.22,-35.27
0.03,-0.15,0.99,-6.58,-9.38,-35.56
0.03,-0.15,0.99,-6.58,-9.38,-35.56
0.01,-0.18,0.98,-9.62,-9.51,-35.18
-0.05,-0.21,0.98,-11.74,-9.54,-34.66
-0.07,-0.23,1.0,-13.15,-9.9,-34.43
-0.08,-0.25,1.04,-13.96,-10.36,-34.43
-0.13,-0.22,1.08,-13.53,-10.3,-34.64
-0.13,-0.22,1.08,-13.53,-10.3,-34.64
-0.23,-0.12,1.08,-11.36,-9.44,-35.27
-0.32,0.0,1.1,-8.28,-8.72,-36.26
-0.34,0.1,1.16,-5.75,-9.08,-37.29
-0.29,0.14,1.2,-5.18,-10.33,-37.95
-0.25,0.15,1.14,-6.93,-11.71,-37.9
-0.25,0.15,1.14,-6.93,-11.71,-37.9
-0.22,0.13,1.04,-9.89,-12.75,-37.19
-0.18,0.1,0.98,-12.59,-13.41,-36.29
-0.09,0.03,0.96,-14.39,-13.44,-35.33
0.01,-0.05,0.94,-15.11,-12.53,-33.75
0.06,-0.13,0.89,-14.55,-10.03,-31.27
0.06,-0.13,0.89,-14.55,-10.03,-31.27
0.05,-0.2,0.83,-11.99,-5.8,-28.2
0.03,-0.28,0.82,-6.93,-0.42,-25.0
-0.01,-0.35,0.85,0.6,5.56,-22.14
-0.09,-0.37,0.89,10.19,11.78,-19.89
-0.26,-0.24,0.93,21.14,17.23,-18.52
-0.26,-0.24,0.93,21.14,17.23,-18.52
-0.42,-0.06,1.0,31.8,20.36,-18.69
-0.48,0.1,1.12,40.06,20.03,-20.82
-0.42,0.19,1.24,43.73,16.27,-25.06
-0.28,0.22,1.28,40.99,9.15,-30.79
-0.16,0.2,1.22,31.75,-0.56,-36.62
-0.16,0.2,1.22,31.75,-0.56,-36.62
-0.09,0.15,1.12,17.82,-11.46,-41.73
-0.03,0.04,1.03,1.72,-22.1,-46.26
0.07,-0.11,1.0,-14.34,-31.27,-50.3
0.15,-0.24,0.94,-28.18,-37.11,-53.73
0.16,-0.32,0.85,-38.34,-38.66,-56.82
0.16,-0.32,0.85,-38.34,-38.66,-56.82
0.15,-0.39,0.79,-44.05,-36.34,-59.75
0.13,-0.46,0.79,-45.26,-30.9,-62.49
0.1,-0.52,0.81,-42.35,-22.92,-64.92
0.01,-0.52,0.79,-35.6,-13.24,-66.84
-0.11,-0.42,0.75,-25.23,-3.09,-68.04
-0.11,-0.42,0.75,-25.23,-3.09,-68.04
-0.22,-0.26,0.79,-12.19,6.07,-68.65
-0.26,-0.13,0.92,1.51,12.8,-68.78
-0.27,-0.04,1.07,13.34,16.56,-68.38
-0.28,0.02,1.18,21.46,17.26,-68.02
-0.29,0.05,1.2,25.31,15.32,-67.3
-0.29,0.05,1.2,25.31,15.32,-67.3
-0.41,0.11,1.24,24.29,10.2,-65.22
-0.48,0.03,1.19,18.7,0.55,-64.9
-0.42,-0.1,1.12,12.44,-11.3,-67.48
-0.32,-0.17,1.09,6.64,-24.43,-71.64
-0.22,-0.15,1.08,0.21,-38.17,-75.72
-0.22,-0.15,1.08,0.21,-38.17,-75.72
-0.1,-0.15,1.03,-6.96,-50.88,-80.0
-0.0,-0.14,0.95,-13.42,-60.55,-84.64
0.01,-0.06,0.84,-18.23,-66.14,-89.24
-0.04,0.1,0.75,-21.37,-67.84,-92.97
-0.06,0.26,0.72,-23.66,-66.68,-95.9
-0.06,0.26,0.72,-23.66,-66.68,-95.9
-0.0,0.32,0.73,-25.56,-63.43,-98.44
0.08,0.31,0.79,-27.28,-57.84,-99.91
0.14,0.29,0.82,-29.95,-49.68,-99.02
0.13,0.28,0.85,-34.44,-39.84,-94.22
0.04,0.25,0.88,-41.0,-29.67,-85.19
0.04,0.25,0.88,-41.0,-29.67,-85.19
-0.07,0.14,0.91,-49.98,-20.63,-74.78
-0.14,-0.02,0.94,-60.25,-13.83,-65.25
-0.17,-0.15,0.98,-69.94,-8.84,-56.66
-0.21,-0.24,0.98,-77.24,-4.36,-49.36
-0.26,-0.3,0.96,-81.04,-0.24,-44.66
-0.26,-0.3,0.96,-81.04,-0.24,-44.66
-0.3,-0.38,0.94,-81.46,2.66,-43.31
-0.32,-0.42,0.91,-78.73,3.85,-44.96
-0.31,-0.43,0.87,-72.82,3.54,-48.74
-0.26,-0.4,0.85,-63.92,2.04,-53.32
-0.2,-0.33,0.88,-52.68,-0.45,-57.77
-0.2,-0.33,0.88,-52.68,-0.45,-57.77
-0.16,-0.24,0.89,-40.26,-3.13,-61.75
-0.14,-0.14,0.88,-27.69,-5.09,-65.16
-0.15,-0.01,0.83,-15.54,-6.08,-67.97
-0.18,0.14,0.79,-4.13,-6.1,-70.18
-0.19,0.28,0.77,6.3,-5.12,-72.16
-0.19,0.28,0.77,6.3,-5.12,-72.16
-0.15,0.4,0.79,15.62,-2.88,-73.94
-0.09,0.48,0.84,23.2,0.55,-75.02
-0.04,0.51,0.91,27.78,4.93,-74.3
-0.05,0.51,0.96,28.26,9.94,-70.9
-0.14,0.46,0.98,24.47,15.2,-65.19
-0.14,0.46,0.98,24.47,15.2,-65.19
-0.28,0.35,0.99,17.41,19.77,-58.72
-0.41,0.22,0.98,9.22,22.46,-52.77
-0.49,0.13,0.98,1.79,22.87,-47.68
-0.51,0.11,0.98,-4.02,21.13,-43.69
-0.49,0.12,1.0,-8.41,17.47,-41.08
-0.49,0.12,1.0,-8.41,17.47,-41.08
-0.42,0.15,1.0,-12.09,12.33,-39.75
-0.34,0.23,0.97,-15.71,6.15,-39.43
-0.27,0.32,0.9,-19.23,-0.33,-40.08
-0.23,0.39,0.83,-22.19,-6.47,-41.64
-0.19,0.44,0.75,-24.21,-11.83,-43.56
-0.19,0.44,0.75,-24.21,-11.83,-43.56
-0.13,0.49,0.7,-25.43,-16.18,-44.86
-0.05,0.54,0.69,-26.18,-19.13,-44.85
0.06,0.58,0.71,-26.89,-20.16,-42.98
0.16,0.58,0.77,-28.16,-18.7,-39.06
0.23,0.53,0.83,-30.68,-14.34,-33.14
0.23,0.53,0.83,-30.68,-14.34,-33.14
0.22,0.43,0.85,-34.77,-6.92,-25.37
0.11,0.33,0.82,-39.76,2.65,-16.32
0.01,0.23,0.79,-44.21,12.59,-7.22
-0.02,0.09,0.77,-47.13,21.69,0.72
0.01,-0.04,0.8,-47.47,29.31,7.68
0.01,-0.04,0.8,-47.47,29.31,7.68
0.06,-0.14,0.79,-44.01,35.95,14.1
0.09,-0.17,0.73,-35.6,41.77,19.71
0.1,-0.15,0.73,-22.28,45.56,24.22
0.06,-0.06,0.84,-5.05,46.84,27.66
-0.04,0.11,0.98,14.01,45.93,29.25
-0.04,0.11,0.98,14.01,45.93,29.25
-0.12,0.29,1.13,32.47,42.82,27.79
-0.12,0.46,1.23,48.14,38.04,23.26
-0.06,0.6,1.29,59.77,32.37,16.89
0.02,0.69,1.35,67.48,26.33,10.44
0.07,0.75,1.36,71.56,20.66,5.35
0.07,0.75,1.36,71.56,20.66,5.35
0.05,0.81,1.33,71.84,15.79,2.17
-0.01,0.87,1.27,68.31,11.44,0.57
-0.08,0.89,1.2,61.32,7.11,0.26
-0.12,0.89,1.11,51.43,2.51,1.27
-0.11,0.87,1.01,39.38,-2.45,3.62
-0.11,0.87,1.01,39.38,-2.45,3.62
-0.02,0.81,0.97,25.78,-7.92,7.02
0.13,0.67,1.01,10.75,-13.75,11.34
0.22,0.5,1.07,-5.83,-18.57,16.65
0.16,0.35,1.09,-23.01,-21.07,22.06
0.04,0.21,1.07,-38.46,-22.21,25.82
0.04,0.21,1.07,-38.46,-22.21,25.82
-0.02,0.09,1.05,-50.64,-23.33,26.92
-0.01,-0.02,1.06,-59.73,-24.94,25.42
0.02,-0.12,1.1,-65.92,-27.41,22.19
0.04,-0.17,1.07,-69.2,-30.57,18.32
0.05,-0.2,1.04,-70.37,-34.93,14.52
0.05,-0.2,1.04,-70.37,-34.93,14.52
0.11,-0.25,1.04,-69.94,-40.21,11.34
0.16,-0.28,0.99,-67.69,-45.31,9.04
0.21,-0.3,0.9,-63.28,-49.22,7.38
0.23,-0.28,0.78,-55.88,-51.24,6.07
0.23,-0.24,0.64,-44.41,-50.65,5.05
0.23,-0.24,0.64,-44.41,-50.65,5.05
0.18,-0.15,0.62,-28.34,-47.62,3.65
0.31,-0.15,0.64,-9.79,-42.63,0.53
0.32,0.09,0.62,9.89,-35.31,1.53
0.27,0.28,0.63,27.6,-27.51,4.21
0.36,0.33,0.63,43.18,-20.25,4.54
0.36,0.33,0.63,43.18,-20.25,4.54
0.5,0.36,0.69,56.6,-12.54,4.98
0.61,0.38,0.79,66.0,-4.09,8.51
0.6,0.37,0.9,72.42,5.56,16.92
0.52,0.29,0.96,76.03,16.35,27.6
0.43,0.19,1.02,75.83,26.96,37.89
0.43,0.19,1.02,75.83,26.96,37.89
0.33,0.11,1.06,71.82,36.25,46.71
0.18,0.03,1.09,65.45,44.21,53.95
0.03,-0.06,1.11,58.85,50.46,59.23
-0.11,-0.12,1.13,53.33,54.17,61.87
-0.18,-0.13,1.16,48.97,55.16,61.13
-0.18,-0.13,1.16,48.97,55.16,61.13
-0.18,-0.08,1.17,45.87,53.96,57.03
-0.14,0.01,1.17,43.53,51.11,51.02
-0.07,0.09,1.17,41.04,46.76,44.49
0.01,0.17,1.16,37.39,41.55,38.29
0.1,0.19,1.13,32.1,35.97,32.66
0.1,0.19,1.13,32.1,35.97,32.66
0.16,0.18,1.07,26.08,30.96,28.3
0.19,0.16,1.03,20.21,27.19,25.41
0.2,0.14,1.01,14.7,24.59,23.76
0.2,0.11,1.02,9.61,22.91,22.86
0.17,0.11,1.02,5.14,22.53,22.64
0.17,0.11,1.02,5.14,22.53,22.64
0.08,0.12,1.01,1.47,23.18,22.28
0.08,0.06,0.99,-1.12,23.82,20.39
0.05,0.05,0.96,-2.1,24.29,19.38
0.02,0.06,0.98,-1.84,23.76,19.19
0.04,0.05,0.97,-0.22,22.14,18.34
0.04,0.05,0.97,-0.22,22.14,18.34
0.05,0.08,0.98,2.83,19.63,17.63
0.04,0.14,1.01,6.46,16.21,17.46
0.06,0.19,1.02,9.69,11.99,17.51
0.11,0.23,1.01,11.68,7.11,17.82
0.16,0.24,1.0,12.09,2.17,18.52
0.16,0.24,1.0,12.09,2.17,18.52
0.19,0.24,0.98,11.19,-2.21,19.97
0.21,0.23,0.97,9.32,-5.7,22.02
0.24,0.21,0.96,6.77,-7.92,24.21
0.27,0.17,0.94,3.82,-8.61,26.32
0.28,0.12,0.92,0.81,-7.85,28.27
0.28,0.12,0.92,0.81,-7.85,28.27
0.28,0.05,0.92,-1.88,-5.96,30.04
0.28,-0.02,0.92,-4.04,-3.36,31.51
0.29,-0.1,0.93,-5.36,-0.17,32.68
0.29,-0.17,0.94,-5.5,3.56,33.58
0.29,-0.23,0.95,-4.44,7.43,34.19
0.29,-0.23,0.95,-4.44,7.43,34.19
0.26,-0.26,0.95,-2.26,11.21,34.43
0.23,-0.27,0.96,0.88,14.56,34.11
0.21,-0.26,0.98,4.59,17.06,33.29
0.18,-0.23,1.0,8.45,18.68,32.2
0.13,-0.18,1.02,12.08,19.53,30.8
0.13,-0.18,1.02,12.08,19.53,30.8
0.08,-0.13,1.03,15.09,19.51,28.85
0.05,-0.1,1.03,17.2,18.5,26.18
0.07,-0.07,1.04,18.39,16.79,23.16
0.11,-0.03,1.07,18.56,14.8,20.74
0.12,0.04,1.1,17.21,12.98,19.53
0.12,0.04,1.1,17.21,12.98,19.53
0.11,0.08,1.11,13.96,11.52,19.02
0.11,0.05,1.09,8.87,10.3,18.2
0.12,-0.03,1.06,2.75,9.44,17.32
0.11,-0.12,1.03,-3.13,9.2,16.78
0.08,-0.19,0.99,-7.61,9.53,16.3
0.08,-0.19,0.99,-7.61,9.53,16.3
0.05,-0.23,0.98,-10.02,10.2,15.56
0.01,-0.23,0.98,-10.34,10.85,14.53
-0.01,-0.19,0.99,-9.02,11.16,13.22
-0.01,-0.14,1.03,-6.8,10.88,11.63
0.0,-0.09,1.04,-4.28,10.28,9.93
0.0,-0.09,1.04,-4.28,10.28,9.93
0.0,-0.05,1.05,-1.93,9.49,8.4
-0.01,-0.01,1.06,-0.01,8.49,7.24
-0.01,0.02,1.06,1.4,7.34,6.4
-0.02,0.04,1.06,2.15,6.31,5.84
-0.02,0.05,1.06,2.25,5.53,5.57
-0.02,0.05,1.06,2.25,5.53,5.57
0.0,0.05,1.06,1.76,5.09,5.64
0.03,0.04,1.06,0.7,5.15,6.23
0.06,0.02,1.05,-0.75,5.86,7.42
0.07,-0.0,1.03,-2.2,7.32,9.09
0.05,-0.04,1.0,-3.1,9.35,10.96
0.05,-0.04,1.0,-3.1,9.35,10.96
0.03,-0.06,0.98,-3.05,11.58,12.82
0.01,-0.06,0.97,-2.04,13.75,14.65
-0.02,-0.05,0.99,-0.44,15.46,16.32
-0.05,-0.02,1.0,1.36,16.64,17.54
-0.07,0.01,1.0,3.07,17.19,18.22
-0.07,0.01,1.0,3.07,17.19,18.22
-0.07,0.05,1.01,4.27,16.86,18.42
-0.04,0.06,1.02,4.63,15.83,18.25
-0.02,0.06,1.02,4.06,14.34,18.08
-0.02,0.05,1.03,2.69,12.62,17.99
-0.03,0.03,1.03,0.73,10.9,17.66
-0.03,0.03,1.03,0.73,10.9,17.66
-0.03,0.01,1.02,-1.38,9.38,16.85
-0.02,-0.01,1.02,-3.34,8.13,15.7
-0.0,-0.03,1.02,-5.13,7.08,14.5
0.02,-0.04,1.01,-6.78,6.24,13.35
0.04,-0.05,1.01,-8.15,5.72,12.39
0.04,-0.05,1.01,-8.15,5.72,12.39
0.04,-0.05,1.01,-9.1,5.66,11.55
0.01,-0.06,1.0,-9.52,6.1,10.68
-0.01,-0.05,1.0,-9.41,6.81,9.73
-0.02,-0.04,0.99,-8.91,7.48,8.71
-0.02,-0.04,0.99,-8.12,8.01,7.78
-0.01,-0.03,0.99,-8.12,8.01,7.78
-0.0,-0.03,0.99,-7.16,8.37,7.03
0.01,-0.02,1.0,-6.08,8.61,6.51
0.01,-0.02,1.0,-4.94,8.87,6.15
-0.01,-0.01,1.0,-3.74,9.34,5.83
-0.01,-0.01,1.0,-2.37,9.88,5.27
-0.06,0.01,1.0,-2.37,9.88,5.27
-0.08,0.04,1.01,-1.01,10.05,4.28
-0.07,0.07,1.02,-0.02,9.71,3.01
-0.05,0.09,1.02,0.32,8.91,1.77
-0.02,0.09,1.02,-0.04,7.72,0.86
-0.02,0.09,1.02,-0.04,7.72,0.86
0.0,0.08,1.01,-1.05,6.35,0.38
0.02,0.05,1.0,-2.42,5.14,0.16
0.02,0.02,0.99,-3.79,4.32,0.08
0.02,-0.0,0.97,-4.8,3.93,0.01
0.02,-0.01,0.97,-5.21,3.86,-0.15
0.02,-0.01,0.97,-5.21,3.86,-0.15
0.02,-0.01,0.97,-5.09,4.09,-0.31
0.03,-0.02,0.97,-4.53,4.58,-0.46
