ax,ay,az,gx,gy,gz
-0.36,0.11,0.91,5.42,-1.75,0.32
-0.36,0.11,0.91,6.38,-1.64,0.29
-0.36,0.12,0.92,7.29,-1.45,0.15
-0.35,0.13,0.92,8.11,-1.19,-0.01
-0.35,0.13,0.92,8.75,-0.78,-0.19
-0.35,0.13,0.92,8.75,-0.78,-0.19
-0.35,0.13,0.93,9.21,-0.17,-0.26
-0.35,0.14,0.93,9.46,0.52,-0.25
-0.36,0.15,0.93,9.47,1.31,-0.25
-0.37,0.16,0.93,9.26,2.03,-0.25
-0.38,0.16,0.92,8.92,2.55,-0.22
-0.38,0.16,0.92,8.92,2.55,-0.22
-0.38,0.16,0.92,8.49,2.77,-0.15
-0.39,0.17,0.92,8.02,2.68,-0.02
-0.39,0.17,0.92,7.51,2.33,0.07
-0.39,0.17,0.92,7.02,1.8,0.08
-0.38,0.17,0.92,6.59,1.09,0.04
-0.38,0.17,0.92,6.59,1.09,0.04
-0.37,0.18,0.91,6.17,0.24,-0.09
-0.36,0.2,0.91,5.8,-0.39,-0.22
-0.36,0.21,0.92,5.39,-0.79,-0.22
-0.35,0.2,0.92,4.78,-1.07,-0.27
-0.35,0.2,0.91,4.02,-1.08,-0.42
-0.35,0.2,0.91,4.02,-1.08,-0.42
-0.35,0.2,0.9,3.27,-0.94,-0.66
-0.35,0.21,0.9,2.64,-0.66,-0.92
-0.34,0.22,0.91,2.09,-0.2,-1.12
-0.33,0.22,0.91,1.53,0.45,-1.26
-0.32,0.23,0.9,1.08,1.24,-1.33
-0.32,0.23,0.9,1.08,1.24,-1.33
-0.33,0.25,0.9,0.76,2.21,-1.28
-0.33,0.26,0.91,0.64,3.25,-1.03
-0.33,0.28,0.91,0.64,4.3,-0.67
-0.33,0.3,0.91,0.65,5.29,-0.21
-0.35,0.31,0.92,0.62,6.17,0.42
-0.35,0.31,0.92,0.62,6.17,0.42
-0.36,0.33,0.92,0.51,6.73,1.22
-0.37,0.34,0.92,0.24,6.95,2.03
-0.37,0.35,0.93,-0.2,6.85,2.89
-0.36,0.35,0.94,-0.87,6.56,3.73
-0.34,0.36,0.94,-1.74,6.14,4.51
-0.34,0.36,0.94,-1.74,6.14,4.51
-0.33,0.36,0.94,-2.73,5.66,5.28
-0.31,0.36,0.95,-3.71,5.27,6.14
-0.29,0.36,0.96,-4.71,4.94,7.15
-0.27,0.35,0.97,-5.68,4.89,8.35
-0.26,0.34,0.99,-6.52,5.19,9.85
-0.26,0.34,0.99,-6.52,5.19,9.85
-0.25,0.32,0.99,-7.15,5.88,11.66
-0.26,0.31,1.01,-7.37,6.85,13.72
-0.28,0.29,1.01,-7.13,7.99,15.9
-0.29,0.29,1.01,-6.32,9.03,18.14
-0.3,0.3,1.02,-4.92,9.76,20.39
-0.3,0.3,1.02,-4.92,9.76,20.39
-0.3,0.33,1.03,-3.16,10.21,22.58
-0.3,0.36,1.04,-1.36,10.44,24.7
-0.3,0.39,1.05,0.2,10.4,26.75
-0.32,0.4,1.07,1.27,10.19,28.67
-0.35,0.39,1.08,1.83,9.77,30.46
-0.35,0.39,1.08,1.83,9.77,30.46
-0.38,0.37,1.09,2.08,9.03,31.95
-0.41,0.35,1.1,2.25,7.76,33.05
-0.41,0.34,1.12,2.39,5.8,33.67
-0.4,0.34,1.14,2.38,3.18,33.89
-0.37,0.35,1.15,2.04,0.19,33.88
-0.37,0.35,1.15,2.04,0.19,33.88
-0.33,0.36,1.16,1.32,-2.8,33.9
-0.3,0.36,1.16,0.11,-5.48,33.99
-0.27,0.34,1.15,-1.5,-7.66,33.96
-0.26,0.32,1.13,-3.09,-9.42,33.97
-0.25,0.3,1.12,-4.33,-10.96,34.08
-0.25,0.3,1.12,-4.33,-10.96,34.08
-0.25,0.29,1.1,-5.22,-12.17,34.38
-0.25,0.27,1.09,-5.71,-13.03,35.01
-0.26,0.25,1.08,-5.74,-13.91,35.9
-0.27,0.24,1.07,-5.3,-14.92,36.89
-0.27,0.26,1.06,-4.49,-16.21,38.03
-0.27,0.26,1.06,-4.49,-16.21,38.03
-0.26,0.27,1.06,-3.61,-17.79,39.27
-0.25,0.28,1.06,-2.98,-19.51,40.58
-0.25,0.29,1.06,-2.71,-21.13,41.89
-0.26,0.29,1.05,-2.89,-22.59,42.97
-0.26,0.29,1.04,-3.59,-23.82,43.65
-0.26,0.29,1.04,-3.59,-23.82,43.65
-0.26,0.28,1.02,-4.74,-24.73,43.97
-0.27,0.27,1.01,-6.15,-25.54,44.11
-0.27,0.25,1.01,-7.82,-26.32,44.11
-0.26,0.23,1.0,-9.71,-27.01,43.97
-0.26,0.2,1.0,-11.76,-27.52,43.84
-0.26,0.2,1.0,-11.76,-27.52,43.84
-0.27,0.17,0.99,-13.82,-27.77,43.74
-0.26,0.14,0.98,-15.69,-27.86,43.74
-0.24,0.12,0.96,-17.2,-27.82,43.74
-0.23,0.11,0.96,-18.14,-27.59,43.69
-0.22,0.11,0.96,-18.59,-27.2,43.41
-0.22,0.11,0.96,-18.59,-27.2,43.41
-0.21,0.1,0.95,-18.73,-26.53,42.84
-0.21,0.1,0.96,-18.64,-25.65,42.1
-0.22,0.09,0.98,-18.42,-24.61,41.43
-0.24,0.08,0.99,-18.25,-23.42,40.96
-0.27,0.07,1.0,-18.26,-22.04,40.67
-0.27,0.07,1.0,-18.26,-22.04,40.67
-0.3,0.05,1.01,-18.4,-20.5,40.42
-0.32,0.03,1.0,-18.55,-18.99,40.08
-0.32,0.03,1.0,-18.48,-17.68,39.54
-0.29,0.03,1.01,-18.13,-16.55,38.7
-0.26,0.04,1.02,-17.65,-15.48,37.64
-0.26,0.04,1.02,-17.65,-15.48,37.64
-0.24,0.03,1.02,-17.24,-14.32,36.5
-0.24,0.02,1.02,-16.85,-13.1,35.27
-0.23,-0.01,1.02,-16.3,-11.91,33.98
-0.25,-0.03,1.04,-15.51,-10.72,32.63
-0.27,-0.05,1.04,-14.56,-9.56,31.1
-0.27,-0.05,1.04,-14.56,-9.56,31.1
-0.3,-0.07,1.04,-13.41,-8.57,29.28
-0.33,-0.08,1.05,-12.04,-7.97,27.12
-0.34,-0.08,1.07,-10.52,-7.81,24.66
-0.33,-0.08,1.08,-9.02,-8.06,21.85
-0.31,-0.09,1.09,-7.7,-8.42,18.66
-0.31,-0.09,1.09,-7.7,-8.42,18.66
-0.29,-0.09,1.09,-6.56,-8.59,15.04
-0.28,-0.1,1.09,-5.58,-8.45,11.17
-0.28,-0.11,1.07,-4.73,-8.15,7.02
-0.29,-0.1,1.06,-3.87,-7.82,2.69
-0.3,-0.1,1.06,-3.02,-7.48,-1.74
-0.3,-0.1,1.06,-3.02,-7.48,-1.74
-0.31,-0.1,1.05,-2.2,-7.23,-6.08
-0.31,-0.1,1.05,-1.4,-7.21,-10.05
-0.31,-0.11,1.05,-0.66,-7.47,-13.5
-0.31,-0.12,1.04,0.03,-7.95,-16.5
-0.31,-0.12,1.02,0.83,-8.73,-19.08
-0.31,-0.12,1.02,0.83,-8.73,-19.08
-0.3,-0.13,1.0,1.92,-9.72,-21.24
-0.29,-0.13,0.99,3.23,-10.84,-23.02
-0.3,-0.13,0.98,4.75,-11.97,-24.51
-0.3,-0.13,0.96,6.42,-13.03,-25.74
-0.31,-0.13,0.95,8.21,-13.94,-26.82
-0.31,-0.13,0.95,8.21,-13.94,-26.82
-0.33,-0.12,0.95,10.03,-14.62,-27.86
-0.32,-0.11,0.96,11.71,-14.93,-29.0
-0.32,-0.1,0.97,13.05,-14.86,-30.31
-0.33,-0.08,0.97,13.87,-14.32,-31.81
-0.35,-0.06,0.97,14.02,-13.46,-33.5
-0.35,-0.06,0.97,14.02,-13.46,-33.5
-0.37,-0.05,0.97,13.41,-12.59,-35.37
-0.38,-0.04,0.97,12.04,-11.9,-37.4
-0.38,-0.05,0.97,9.88,-11.39,-39.52
-0.38,-0.08,0.97,7.14,-10.93,-41.66
-0.38,-0.12,0.97,4.2,-10.41,-43.76
-0.38,-0.12,0.97,4.2,-10.41,-43.76
-0.39,-0.16,0.97,1.41,-9.8,-45.65
-0.4,-0.21,0.96,-0.86,-9.01,-47.19
-0.41,-0.24,0.95,-2.33,-8.02,-48.35
-0.44,-0.26,0.94,-2.86,-6.87,-49.27
-0.47,-0.26,0.91,-2.36,-5.74,-50.27
-0.47,-0.26,0.91,-2.36,-5.74,-50.27
-0.49,-0.25,0.89,-0.79,-4.89,-51.5
-0.5,-0.22,0.89,1.67,-4.47,-52.9
-0.49,-0.17,0.9,4.57,-4.58,-54.15
-0.47,-0.12,0.92,7.29,-5.14,-54.99
-0.46,-0.1,0.95,9.32,-5.73,-55.25
-0.46,-0.1,0.95,9.32,-5.73,-55.25
-0.47,-0.11,0.96,10.28,-5.93,-55.07
-0.49,-0.14,0.96,10.28,-5.46,-54.8
-0.51,-0.17,0.94,9.99,-4.16,-54.75
-0.55,-0.19,0.9,9.92,-2.1,-55.27
-0.58,-0.17,0.87,10.24,0.32,-56.53
-0.58,-0.17,0.87,10.24,0.32,-56.53
-0.61,-0.13,0.85,10.96,2.57,-58.44
-0.62,-0.08,0.85,11.76,4.28,-60.94
-0.6,-0.04,0.86,12.26,5.28,-63.7
-0.57,-0.0,0.87,12.15,5.56,-66.28
-0.55,0.01,0.89,11.26,5.23,-68.4
-0.55,0.01,0.89,11.26,5.23,-68.4
-0.53,0.0,0.9,9.61,4.41,-69.99
-0.51,-0.03,0.89,7.49,3.25,-71.04
-0.52,-0.07,0.88,5.42,1.95,-71.71
-0.53,-0.1,0.86,3.97,0.54,-72.21
-0.56,-0.11,0.84,3.46,-1.26,-72.63
-0.56,-0.11,0.84,3.46,-1.26,-72.63
-0.56,-0.1,0.84,3.85,-3.61,-73.03
-0.55,-0.08,0.85,4.9,-6.44,-73.48
-0.54,-0.04,0.88,6.23,-9.38,-73.88
-0.51,-0.01,0.89,7.36,-12.03,-74.18
-0.48,0.0,0.89,7.91,-14.13,-74.32
-0.48,0.0,0.89,7.91,-14.13,-74.32
-0.45,0.0,0.88,7.8,-15.49,-74.26
-0.4,-0.03,0.85,7.24,-15.98,-73.89
-0.37,-0.06,0.83,6.58,-15.59,-73.18
-0.38,-0.08,0.8,6.29,-14.5,-72.25
-0.39,-0.09,0.78,6.71,-13.0,-71.32
-0.39,-0.09,0.78,6.71,-13.0,-71.32
-0.41,-0.11,0.78,7.92,-11.39,-70.49
-0.42,-0.11,0.79,9.86,-9.91,-69.75
-0.44,-0.1,0.8,12.46,-8.66,-69.17
-0.45,-0.08,0.82,15.62,-7.83,-68.74
-0.46,-0.05,0.85,18.95,-7.56,-68.39
-0.46,-0.05,0.85,18.95,-7.56,-68.39
-0.45,-0.02,0.87,22.0,-7.76,-68.09
-0.44,0.0,0.87,24.43,-8.41,-67.8
-0.44,0.01,0.87,26.08,-9.43,-67.59
-0.43,0.02,0.86,26.99,-10.76,-67.55
-0.43,0.02,0.85,27.32,-12.37,-67.74
-0.43,0.02,0.85,27.32,-12.37,-67.74
-0.41,0.01,0.85,27.22,-14.18,-68.06
-0.38,0.0,0.86,26.74,-15.97,-68.45
-0.35,-0.01,0.86,25.94,-17.33,-68.74
-0.34,-0.01,0.85,24.96,-17.95,-68.96
-0.34,-0.01,0.85,24.02,-17.79,-69.21
-0.34,-0.01,0.83,24.02,-17.79,-69.21
-0.34,-0.01,0.82,23.18,-16.97,-69.58
-0.34,-0.0,0.8,22.48,-15.69,-69.86
-0.33,0.01,0.79,21.92,-14.17,-69.99
-0.32,0.01,0.8,21.42,-12.32,-69.93
-0.32,0.01,0.8,20.91,-10.12,-69.58
-0.31,-0.0,0.81,20.91,-10.12,-69.58
-0.32,-0.03,0.8,20.49,-7.63,-68.93
-0.35,-0.05,0.79,20.41,-5.03,-67.99
-0.38,-0.06,0.78,20.87,-2.67,-66.99
-0.39,-0.05,0.77,22.13,-0.86,-66.21
-0.39,-0.05,0.77,22.13,-0.86,-66.21
-0.38,-0.05,0.78,24.1,0.21,-65.62
-0.36,-0.04,0.79,26.41,0.62,-65.0
-0.36,-0.02,0.79,28.8,0.66,-64.35
-0.37,0.01,0.78,31.17,0.45,-63.81
-0.39,0.04,0.78,33.27,0.06,-63.45
-0.39,0.04,0.78,33.27,0.06,-63.45
-0.39,0.07,0.79,34.78,-0.47,-63.29
-0.39,0.11,0.79,35.47,-0.89,-63.3
-0.39,0.14,0.81,35.05,-0.88,-63.56
-0.37,0.15,0.82,33.36,-0.04,-64.06
-0.36,0.15,0.81,30.54,1.86,-64.65
-0.36,0.15,0.81,30.54,1.86,-64.65
-0.36,0.14,0.78,26.98,4.6,-65.17
-0.39,0.14,0.76,23.15,7.75,-65.58
-0.41,0.13,0.74,19.64,10.76,-65.95
-0.41,0.13,0.74,16.84,13.12,-66.25
-0.41,0.13,0.77,15.02,14.84,-66.09
-0.41,0.13,0.77,15.02,14.84,-66.09
-0.43,0.13,0.81,14.02,15.86,-65.3
-0.45,0.13,0.84,13.45,16.12,-64.16
-0.47,0.12,0.84,13.49,15.96,-62.72
-0.49,0.12,0.84,14.23,15.24,-60.95
-0.49,0.13,0.86,15.6,13.74,-58.97
-0.49,0.13,0.86,15.6,13.74,-58.97
-0.47,0.14,0.88,17.3,11.61,-56.87
-0.44,0.15,0.9,18.98,9.26,-54.7
-0.43,0.16,0.9,20.36,7.14,-52.55
-0.42,0.17,0.89,21.29,5.34,-50.68
-0.41,0.17,0.88,21.72,3.8,-49.16
-0.41,0.17,0.88,21.72,3.8,-49.16
-0.39,0.16,0.89,21.63,2.48,-47.95
-0.37,0.14,0.9,21.02,1.49,-46.98
-0.37,0.12,0.9,19.93,1.0,-46.15
-0.38,0.1,0.9,18.5,1.06,-45.49
-0.4,0.07,0.89,16.98,1.53,-45.18
-0.4,0.07,0.89,16.98,1.53,-45.18
-0.41,0.05,0.89,15.65,2.15,-45.13
-0.42,0.04,0.9,14.69,2.75,-45.21
-0.43,0.04,0.89,14.22,3.26,-45.39
-0.44,0.04,0.88,14.26,3.6,-45.6
-0.45,0.06,0.87,14.77,3.66,-45.85
-0.45,0.06,0.87,14.77,3.66,-45.85
-0.46,0.08,0.86,15.56,3.36,-46.17
-0.46,0.12,0.86,16.49,2.71,-46.56
-0.46,0.16,0.87,17.34,1.72,-46.91
-0.46,0.19,0.89,17.77,0.57,-47.24
-0.44,0.21,0.92,17.45,-0.49,-47.47
-0.44,0.21,0.92,17.45,-0.49,-47.47
-0.42,0.21,0.94,16.27,-1.08,-47.51
-0.42,0.17,0.96,14.37,-0.95,-47.34
-0.44,0.14,0.95,12.19,-0.09,-47.05
-0.49,0.11,0.93,10.28,1.14,-46.7
-0.52,0.1,0.9,9.03,2.22,-46.43
-0.52,0.1,0.9,9.03,2.22,-46.43
-0.52,0.1,0.88,8.61,2.76,-46.27
-0.51,0.12,0.87,8.92,2.74,-46.12
-0.49,0.15,0.85,9.7,2.37,-45.9
-0.47,0.18,0.82,10.61,1.73,-45.58
-0.45,0.22,0.8,11.48,0.79,-45.12
-0.45,0.22,0.8,11.48,0.79,-45.12
-0.43,0.25,0.79,12.11,-0.4,-44.5
-0.41,0.27,0.79,12.21,-1.71,-43.69
-0.39,0.28,0.81,11.57,-2.86,-42.8
-0.37,0.26,0.84,10.12,-3.47,-41.77
-0.37,0.23,0.86,8.0,-3.26,-40.56
-0.37,0.23,0.86,8.0,-3.26,-40.56
-0.4,0.18,0.87,5.56,-2.13,-39.28
-0.45,0.15,0.85,3.34,-0.44,-38.0
-0.5,0.12,0.83,1.78,1.16,-36.78
-0.52,0.11,0.82,1.0,2.21,-35.73
-0.52,0.13,0.82,1.02,2.63,-34.86
-0.52,0.13,0.82,1.02,2.63,-34.86
-0.5,0.15,0.82,1.63,2.59,-34.22
-0.48,0.19,0.82,2.49,2.19,-33.76
-0.46,0.23,0.82,3.27,1.44,-33.4
-0.44,0.27,0.82,3.72,0.42,-33.13
-0.42,0.3,0.84,3.53,-0.69,-32.94
-0.42,0.3,0.84,3.53,-0.69,-32.94
-0.41,0.32,0.86,2.47,-1.7,-32.82
-0.39,0.32,0.89,0.44,-2.39,-32.73
-0.37,0.28,0.92,-2.52,-2.44,-32.48
-0.39,0.23,0.93,-6.1,-1.68,-32.02
-0.43,0.16,0.92,-9.69,-0.22,-31.31
-0.43,0.16,0.92,-9.69,-0.22,-31.31
-0.48,0.11,0.9,-12.6,1.59,-30.47
-0.53,0.07,0.87,-14.27,3.25,-29.63
-0.56,0.05,0.84,-14.31,4.32,-28.83
-0.57,0.06,0.81,-12.66,4.52,-27.99
-0.55,0.1,0.8,-9.55,3.74,-27.12
-0.55,0.1,0.8,-9.55,3.74,-27.12
-0.5,0.16,0.79,-5.53,2.16,-26.26
-0.45,0.23,0.79,-1.2,0.07,-25.35
-0.42,0.3,0.79,2.85,-2.24,-24.3
-0.4,0.37,0.79,6.01,-4.49,-23.15
-0.39,0.42,0.8,7.8,-6.45,-21.94
-0.39,0.42,0.8,7.8,-6.45,-21.94
-0.37,0.45,0.82,7.91,-7.92,-20.78
-0.35,0.43,0.85,6.36,-8.56,-19.65
-0.34,0.4,0.88,3.24,-8.0,-18.45
-0.37,0.34,0.88,-1.04,-6.2,-17.15
-0.42,0.26,0.86,-5.74,-3.51,-15.8
-0.42,0.26,0.86,-5.74,-3.51,-15.8
-0.48,0.2,0.84,-9.97,-0.55,-14.46
-0.53,0.14,0.82,-12.99,2.06,-13.19
-0.55,0.12,0.8,-14.44,3.96,-12.06
-0.53,0.12,0.78,-14.23,5.04,-11.11
-0.49,0.18,0.79,-12.39,5.36,-10.39
-0.49,0.18,0.79,-12.39,5.36,-10.39
-0.43,0.24,0.82,-9.38,5.14,-9.9
-0.39,0.32,0.84,-6.01,4.64,-9.46
-0.36,0.39,0.86,-3.17,4.11,-8.88
-0.35,0.44,0.9,-1.33,3.58,-8.06
-0.34,0.47,0.95,-0.79,3.1,-6.98
-0.34,0.47,0.95,-0.79,3.1,-6.98
-0.33,0.46,0.99,-1.72,2.89,-5.59
-0.36,0.44,1.01,-4.17,3.27,-3.99
-0.41,0.39,1.0,-7.79,4.28,-2.28
-0.48,0.34,0.97,-11.76,5.47,-0.72
-0.52,0.28,0.95,-15.29,6.43,0.47
-0.52,0.28,0.95,-15.29,6.43,0.47
-0.54,0.25,0.94,-17.97,6.92,1.36
-0.55,0.23,0.94,-19.59,6.99,2.1
-0.54,0.24,0.94,-20.26,6.76,2.77
-0.51,0.27,0.93,-20.11,6.24,3.51
-0.49,0.31,0.92,-19.4,5.43,4.35
-0.49,0.31,0.92,-19.4,5.43,4.35
-0.47,0.35,0.92,-18.47,4.35,5.32
-0.45,0.38,0.92,-17.64,3.03,6.52
-0.44,0.41,0.91,-17.25,1.48,8.02
-0.43,0.43,0.89,-17.52,-0.29,9.76
-0.42,0.43,0.89,-18.52,-2.13,11.62
-0.42,0.43,0.89,-18.52,-2.13,11.62
-0.4,0.41,0.89,-20.18,-3.7,13.61
-0.39,0.37,0.9,-22.35,-4.67,15.85
-0.39,0.31,0.9,-24.8,-4.93,18.38
-0.4,0.26,0.89,-27.13,-4.48,21.12
-0.42,0.21,0.88,-28.86,-3.5,23.97
-0.42,0.21,0.88,-28.86,-3.5,23.97
-0.44,0.17,0.88,-29.64,-2.18,26.7
-0.45,0.15,0.88,-29.37,-0.87,29.07
-0.45,0.16,0.89,-28.06,0.08,30.91
-0.44,0.2,0.91,-25.92,0.77,32.32
-0.43,0.25,0.94,-23.57,1.29,33.35
-0.43,0.25,0.94,-23.57,1.29,33.35
-0.42,0.29,0.97,-21.66,1.6,34.15
-0.4,0.31,0.98,-20.64,1.73,34.77
-0.37,0.31,0.99,-20.62,1.8,35.31
-0.36,0.29,1.0,-21.49,2.04,36.1
-0.35,0.25,1.01,-23.02,2.4,37.26
-0.35,0.25,1.01,-23.02,2.4,37.26
-0.37,0.2,1.01,-24.86,3.02,38.79
-0.39,0.13,1.02,-26.53,3.76,40.59
-0.41,0.07,1.03,-27.46,4.57,42.66
-0.44,0.02,1.02,-27.28,5.24,44.88
-0.46,-0.0,1.01,-25.85,5.38,46.86
-0.46,-0.0,1.01,-25.85,5.38,46.86
-0.46,0.0,1.01,-23.2,5.05,48.35
-0.46,0.04,1.01,-19.58,4.38,49.43
-0.46,0.1,1.01,-15.58,3.19,49.99
-0.41,0.15,1.01,-11.88,1.49,50.03
-0.37,0.19,1.0,-8.99,-0.42,49.82
-0.37,0.19,1.0,-8.99,-0.42,49.82
-0.35,0.23,0.99,-7.19,-2.25,49.58
-0.35,0.28,0.97,-6.54,-3.87,49.13
-0.34,0.31,0.94,-7.09,-5.35,48.37
-0.32,0.32,0.92,-8.85,-6.72,47.46
-0.3,0.33,0.92,-11.57,-7.8,46.6
-0.3,0.33,0.92,-11.57,-7.8,46.6
-0.28,0.31,0.91,-15.11,-8.39,45.83
-0.26,0.26,0.9,-19.22,-8.45,45.27
-0.24,0.21,0.87,-23.39,-8.09,45.09
-0.22,0.14,0.88,-26.98,-7.29,45.39
-0.22,0.08,0.89,-29.58,-5.96,46.11
-0.22,0.08,0.89,-29.58,-5.96,46.11
-0.21,0.03,0.88,-30.94,-4.1,47.14
-0.2,-0.0,0.88,-30.91,-1.87,48.47
-0.22,-0.01,0.89,-29.46,0.77,50.0
-0.25,0.01,0.9,-26.79,3.59,51.47
-0.28,0.05,0.91,-23.28,6.47,52.56
-0.28,0.05,0.91,-23.28,6.47,52.56
-0.3,0.11,0.93,-19.48,9.11,53.33
-0.29,0.15,0.95,-15.97,11.07,53.85
-0.28,0.19,0.98,-13.22,12.28,54.2
-0.27,0.21,1.0,-11.63,13.08,54.55
-0.28,0.21,1.01,-11.3,13.7,54.94
-0.28,0.21,1.01,-11.3,13.7,54.94
-0.3,0.19,1.0,-12.06,14.02,55.27
-0.3,0.17,0.99,-13.49,13.8,55.43
-0.32,0.14,0.97,-15.2,13.04,55.38
-0.33,0.13,0.97,-16.91,11.85,55.06
-0.34,0.11,0.97,-18.47,10.34,54.43
-0.34,0.11,0.97,-18.47,10.34,54.43
-0.35,0.11,0.97,-19.93,8.43,53.47
-0.34,0.11,0.97,-21.35,6.09,52.18
-0.32,0.11,0.97,-22.76,3.63,50.68
-0.3,0.1,0.97,-24.15,1.31,49.18
-0.29,0.09,0.98,-25.54,-0.7,47.8
-0.29,0.09,0.98,-25.54,-0.7,47.8
-0.3,0.08,0.96,-26.99,-2.42,46.5
-0.31,0.07,0.95,-28.29,-4.01,45.18
-0.33,0.06,0.95,-29.21,-5.64,43.84
-0.33,0.05,0.94,-29.73,-7.27,42.41
-0.32,0.05,0.93,-29.85,-8.84,40.92
-0.32,0.05,0.93,-29.85,-8.84,40.92
-0.29,0.04,0.93,-29.59,-10.22,39.46
-0.27,0.03,0.95,-29.0,-11.04,38.16
-0.25,0.03,0.97,-28.11,-11.03,37.18
-0.25,0.02,0.98,-27.14,-10.11,36.49
-0.25,0.01,0.99,-26.13,-8.25,36.07
-0.25,0.01,0.99,-26.13,-8.25,36.07
-0.24,-0.01,0.99,-24.97,-5.5,35.97
-0.24,-0.04,1.01,-23.49,-2.18,36.25
-0.24,-0.05,1.0,-21.58,1.39,36.93
-0.25,-0.06,1.0,-19.18,4.85,37.91
-0.28,-0.05,0.99,-16.26,7.85,39.14
-0.28,-0.05,0.99,-16.26,7.85,39.14
-0.32,-0.03,0.98,-12.97,10.13,40.48
-0.35,-0.02,0.98,-9.57,11.52,41.66
-0.36,-0.0,0.98,-6.21,11.9,42.69
-0.36,0.02,0.98,-3.03,11.23,43.76
-0.36,0.04,0.99,-0.34,9.71,44.94
-0.36,0.04,0.99,-0.34,9.71,44.94
-0.35,0.05,1.0,1.59,7.72,46.24
-0.34,0.05,1.01,2.65,5.74,47.57
-0.34,0.03,1.0,2.85,4.15,48.79
-0.34,0.0,0.99,2.41,3.13,49.78
-0.33,-0.02,0.98,1.67,2.73,50.52
-0.33,-0.02,0.98,1.67,2.73,50.52
-0.34,-0.04,0.97,0.87,2.79,51.05
-0.35,-0.05,0.98,0.11,3.31,51.34
-0.35,-0.07,0.98,-0.59,4.21,51.4
-0.36,-0.1,0.98,-1.04,5.37,51.09
-0.35,-0.12,0.98,-0.98,6.72,50.49
-0.35,-0.12,0.98,-0.98,6.72,50.49
-0.35,-0.13,0.97,-0.34,7.98,49.75
-0.34,-0.11,0.98,0.82,9.0,48.98
-0.34,-0.09,0.99,2.18,9.87,48.24
-0.35,-0.07,0.99,3.51,10.63,47.56
-0.37,-0.05,0.98,4.67,11.19,47.02
-0.37,-0.05,0.98,4.67,11.19,47.02
-0.38,-0.03,0.97,5.54,11.38,46.54
-0.39,-0.02,0.97,6.07,11.13,46.15
-0.39,-0.02,0.97,6.25,10.63,45.78
-0.4,-0.04,0.96,6.13,10.08,45.4
-0.4,-0.05,0.96,5.81,9.53,44.96
-0.4,-0.05,0.96,5.81,9.53,44.96
-0.41,-0.06,0.96,5.48,9.05,44.39
-0.4,-0.07,0.96,5.2,8.81,43.62
-0.41,-0.07,0.96,5.04,8.94,42.7
-0.42,-0.07,0.96,4.94,9.42,41.59
-0.44,-0.06,0.96,4.85,10.21,40.21
-0.44,-0.06,0.96,4.85,10.21,40.21
-0.46,-0.05,0.95,4.83,11.12,38.59
-0.47,-0.03,0.95,4.88,11.9,36.79
-0.48,0.0,0.95,4.88,12.38,34.8
-0.48,0.03,0.95,4.68,12.5,32.74
-0.49,0.05,0.95,4.07,12.29,30.73
-0.49,0.05,0.95,4.07,12.29,30.73
-0.5,0.05,0.96,3.05,11.81,28.83
-0.49,0.04,0.96,1.78,11.12,27.02
-0.49,0.03,0.96,0.38,10.33,25.4
-0.49,0.02,0.96,-0.95,9.64,24.0
-0.5,0.02,0.96,-2.12,9.11,22.75
-0.5,0.02,0.96,-2.12,9.11,22.75
-0.52,0.01,0.96,-2.97,8.62,21.62
-0.52,0.02,0.95,-3.36,8.04,20.6
-0.53,0.03,0.95,-3.3,7.38,19.69
-0.52,0.05,0.95,-2.89,6.62,18.83
-0.52,0.06,0.95,-2.37,5.72,18.02
-0.52,0.06,0.95,-2.37,5.72,18.02
-0.51,0.08,0.94,-1.86,4.69,17.23
-0.51,0.09,0.94,-1.38,3.57,16.5
-0.51,0.1,0.93,-1.04,2.33,15.78
-0.5,0.1,0.93,-0.91,0.98,15.0
-0.5,0.1,0.93,-1.07,-0.42,14.34
-0.5,0.1,0.93,-1.07,-0.42,14.34
-0.49,0.09,0.92,-1.43,-1.81,13.74
-0.5,0.09,0.92,-1.88,-3.09,13.13
-0.5,0.08,0.91,-2.36,-4.29,12.43
