ax,ay,az,gx,gy,gz
-0.1,0.0,1.02,2.39,1.95,4.68
-0.1,0.01,1.02,2.48,0.57,4.84
-0.1,0.01,1.02,2.48,0.57,4.84
-0.08,0.01,1.02,2.39,-1.02,5.05
-0.06,0.01,1.01,2.16,-2.66,5.26
-0.05,-0.0,1.01,1.86,-4.11,5.44
-0.03,-0.01,1.0,1.56,-5.2,5.59
-0.03,-0.02,1.0,1.44,-5.79,5.69
-0.03,-0.02,1.0,1.44,-5.79,5.69
-0.05,-0.02,0.99,1.6,-5.83,5.69
-0.06,-0.0,0.99,1.95,-5.41,5.43
-0.07,0.01,1.0,2.23,-4.9,4.9
-0.06,0.02,1.01,2.22,-4.47,4.27
-0.06,0.03,1.0,1.82,-4.12,3.65
-0.06,0.03,1.0,1.82,-4.12,3.65
-0.05,0.02,1.0,1.15,-3.78,3.1
-0.05,0.02,1.0,0.33,-3.37,2.59
-0.07,0.01,1.0,-0.43,-2.87,2.12
-0.08,0.02,0.99,-1.01,-2.43,1.72
-0.09,0.02,0.99,-1.39,-2.16,1.41
-0.09,0.02,0.99,-1.39,-2.16,1.41
-0.09,0.02,0.99,-1.58,-2.16,1.22
-0.08,0.02,0.99,-1.59,-2.35,1.16
-0.07,0.02,0.99,-1.49,-2.58,1.22
-0.06,0.01,0.99,-1.28,-2.82,1.4
-0.07,-0.0,0.98,-0.82,-2.82,1.56
-0.07,-0.0,0.98,-0.82,-2.82,1.56
-0.09,-0.01,0.98,-0.03,-2.72,1.7
-0.11,0.0,0.98,1.08,-2.7,1.72
-0.11,0.02,1.0,2.31,-2.71,1.56
-0.1,0.03,1.01,3.36,-2.8,1.3
-0.1,0.05,1.03,3.94,-2.95,1.04
-0.1,0.05,1.03,3.94,-2.95,1.04
-0.09,0.05,1.03,3.83,-3.11,0.75
-0.09,0.04,1.02,3.04,-3.23,0.49
-0.09,0.03,1.01,1.84,-3.32,0.33
-0.09,0.01,1.0,0.54,-3.35,0.18
-0.09,0.01,0.99,-0.61,-3.41,-0.0
-0.09,0.01,0.99,-0.61,-3.41,-0.0
-0.09,0.01,0.99,-1.46,-3.52,-0.2
-0.07,0.01,0.99,-2.1,-3.73,-0.33
-0.06,0.01,0.99,-2.7,-4.05,-0.29
-0.05,0.0,0.99,-3.36,-4.33,-0.11
-0.04,-0.01,0.99,-4.0,-4.38,0.16
-0.04,-0.01,0.99,-4.0,-4.38,0.16
-0.04,-0.02,0.99,-4.48,-4.02,0.44
-0.06,-0.02,0.98,-4.68,-3.29,0.67
-0.08,-0.02,0.98,-4.55,-2.39,0.77
-0.08,-0.02,0.97,-4.08,-1.58,0.75
-0.07,-0.01,0.98,-3.38,-0.9,0.68
-0.07,-0.01,0.98,-3.38,-0.9,0.68
-0.06,0.0,0.98,-2.68,-0.39,0.64
-0.05,0.01,0.98,-2.07,0.03,0.64
-0.05,0.01,0.99,-1.63,0.45,0.67
-0.07,0.01,0.98,-1.4,0.85,0.71
-0.08,0.01,0.98,-1.26,1.07,0.63
-0.08,0.01,0.98,-1.26,1.07,0.63
-0.09,0.02,0.98,-1.26,0.93,0.39
-0.08,0.02,0.99,-1.48,0.42,0.13
-0.07,0.02,0.99,-2.03,-0.39,-0.07
-0.06,0.01,0.99,-2.89,-1.36,-0.15
-0.04,0.0,0.98,-3.91,-2.37,-0.2
-0.04,0.0,0.98,-3.91,-2.37,-0.2
-0.03,-0.02,0.98,-4.82,-3.13,-0.22
-0.03,-0.03,0.97,-5.44,-3.4,-0.31
-0.03,-0.04,0.96,-5.61,-3.18,-0.47
-0.03,-0.04,0.95,-5.26,-2.64,-0.68
-0.03,-0.03,0.95,-4.44,-1.9,-0.87
-0.03,-0.03,0.95,-4.44,-1.9,-0.87
-0.03,-0.02,0.96,-3.34,-1.08,-1.0
-0.04,-0.01,0.96,-2.15,-0.26,-1.06
-0.04,0.01,0.97,-1.02,0.6,-1.09
-0.05,0.02,0.98,-0.11,1.61,-1.2
-0.07,0.02,0.98,0.54,2.66,-1.43
-0.07,0.02,0.98,0.54,2.66,-1.43
-0.08,0.03,0.98,0.87,3.5,-1.72
-0.08,0.03,0.98,0.86,4.01,-1.98
-0.09,0.03,0.99,0.58,4.18,-2.14
-0.09,0.03,0.99,0.12,4.05,-2.14
-0.11,0.02,0.99,-0.42,3.64,-2.03
-0.11,0.02,0.99,-0.42,3.64,-2.03
-0.12,0.02,1.0,-0.87,3.03,-1.93
-0.12,0.02,1.0,-1.16,2.36,-2.01
-0.11,0.02,1.01,-1.35,1.64,-2.17
-0.1,0.03,1.01,-1.57,0.83,-2.21
-0.08,0.03,1.01,-1.9,0.03,-2.14
-0.08,0.03,1.01,-1.9,0.03,-2.14
-0.07,0.02,1.01,-2.33,-0.64,-1.86
-0.06,0.02,1.0,-2.81,-1.17,-1.46
-0.05,0.0,1.0,-3.29,-1.44,-0.98
-0.05,-0.01,0.99,-3.59,-1.38,-0.53
-0.04,-0.02,0.99,-3.56,-0.92,-0.06
-0.04,-0.02,0.99,-3.56,-0.92,-0.06
-0.04,-0.02,0.99,-3.2,-0.18,0.41
-0.05,-0.02,0.99,-2.55,0.72,0.91
-0.06,-0.02,0.99,-1.76,1.59,1.39
-0.08,-0.02,1.0,-0.96,2.28,1.79
-0.09,-0.02,1.01,-0.21,2.69,2.04
-0.09,-0.02,1.01,-0.21,2.69,2.04
-0.09,-0.02,1.01,0.43,2.8,2.23
-0.08,-0.02,1.01,0.97,2.63,2.4
-0.09,-0.01,1.01,1.4,2.22,2.53
-0.08,-0.0,1.01,1.61,1.61,2.56
-0.07,0.0,1.02,1.54,0.87,2.51
-0.07,0.0,1.02,1.54,0.87,2.51
-0.07,-0.0,1.02,1.19,0.05,2.43
-0.06,-0.01,1.01,0.52,-0.84,2.39
-0.05,-0.01,1.0,-0.3,-1.71,2.38
-0.05,-0.02,1.0,-1.14,-2.42,2.36
-0.04,-0.02,1.0,-1.93,-2.89,2.35
-0.04,-0.02,1.0,-1.93,-2.89,2.35
-0.05,-0.03,1.0,-2.65,-3.1,2.3
-0.06,-0.04,0.98,-3.22,-3.06,2.09
-0.06,-0.05,0.97,-3.55,-2.82,1.7
-0.06,-0.06,0.96,-3.52,-2.54,1.19
-0.05,-0.06,0.95,-3.05,-2.23,0.68
-0.05,-0.06,0.95,-3.05,-2.23,0.68
-0.06,-0.05,0.94,-2.1,-1.9,0.18
-0.06,-0.04,0.94,-0.74,-1.58,-0.31
-0.07,-0.02,0.95,0.83,-1.35,-0.76
-0.08,0.01,0.96,2.35,-1.27,-1.19
-0.07,0.03,0.96,3.47,-1.38,-1.58
-0.07,0.03,0.96,3.47,-1.38,-1.58
-0.07,0.05,0.97,3.97,-1.68,-1.93
-0.06,0.05,0.97,3.8,-1.96,-2.26
-0.06,0.05,0.98,3.05,-2.02,-2.63
-0.06,0.03,0.97,1.88,-1.82,-2.95
-0.07,0.02,0.96,0.54,-1.48,-3.23
-0.07,0.02,0.96,0.54,-1.48,-3.23
-0.06,-0.0,0.95,-0.67,-1.11,-3.43
-0.06,-0.02,0.94,-1.44,-0.71,-3.5
-0.05,-0.02,0.93,-1.61,-0.23,-3.45
-0.06,-0.02,0.93,-1.15,0.35,-3.26
-0.06,-0.02,0.94,-0.08,1.03,-2.95
-0.06,-0.02,0.94,-0.08,1.03,-2.95
-0.07,-0.02,0.94,1.4,1.65,-2.58
-0.08,-0.01,0.95,3.06,2.12,-2.35
-0.08,0.01,0.96,4.77,2.51,-2.32
-0.07,0.03,0.97,6.3,2.87,-2.37
-0.07,0.04,0.99,7.41,3.19,-2.37
-0.07,0.04,0.99,7.41,3.19,-2.37
-0.07,0.05,0.99,7.87,3.41,-2.3
-0.07,0.05,0.99,7.65,3.52,-2.21
-0.07,0.04,0.99,6.91,3.62,-2.18
-0.07,0.03,0.99,5.94,3.76,-2.21
-0.07,0.02,0.99,4.93,3.91,-2.27
-0.07,0.02,0.99,4.93,3.91,-2.27
-0.06,0.01,0.99,3.9,4.04,-2.26
-0.06,0.0,0.99,2.88,4.15,-2.2
-0.05,-0.01,0.99,1.99,4.36,-2.12
-0.05,-0.02,0.99,1.36,4.7,-2.06
-0.06,-0.03,0.99,1.11,5.09,-1.95
-0.06,-0.03,0.99,1.11,5.09,-1.95
-0.06,-0.03,0.98,1.24,5.42,-1.74
-0.06,-0.03,0.99,1.72,5.6,-1.47
-0.06,-0.02,0.99,2.39,5.61,-1.13
-0.06,-0.02,1.0,3.15,5.53,-0.77
-0.06,-0.02,1.0,3.95,5.49,-0.48
-0.06,-0.02,1.0,3.95,5.49,-0.48
-0.07,-0.01,1.0,4.76,5.49,-0.32
-0.07,-0.01,1.0,5.59,5.5,-0.35
-0.07,-0.0,1.0,6.34,5.51,-0.62
-0.07,0.01,1.01,7.01,5.56,-1.08
-0.06,0.02,1.02,7.48,5.74,-1.73
-0.06,0.02,1.02,7.48,5.74,-1.73
-0.06,0.04,1.03,7.64,6.14,-2.54
-0.07,0.05,1.04,7.33,6.69,-3.4
-0.09,0.05,1.04,6.42,7.09,-4.26
-0.1,0.05,1.03,4.96,7.14,-5.04
-0.1,0.05,1.02,3.23,6.87,-5.71
-0.1,0.05,1.02,3.23,6.87,-5.71
-0.1,0.04,1.02,1.52,6.26,-6.2
-0.11,0.03,1.0,0.17,5.36,-6.49
-0.11,0.03,0.99,-0.56,4.15,-6.43
-0.11,0.05,0.99,-0.62,2.61,-6.07
-0.11,0.06,0.99,-0.14,0.8,-5.48
-0.11,0.06,0.99,-0.14,0.8,-5.48
-0.1,0.08,0.98,0.73,-1.16,-4.73
-0.1,0.11,0.98,1.86,-3.13,-3.91
-0.1,0.15,0.99,3.08,-5.05,-3.14
-0.1,0.19,0.99,4.15,-6.86,-2.5
-0.11,0.24,1.0,4.88,-8.6,-2.03
-0.11,0.24,1.0,4.88,-8.6,-2.03
-0.11,0.3,0.99,5.12,-10.36,-1.75
-0.1,0.35,1.01,4.68,-12.1,-1.63
-0.07,0.4,1.02,3.11,-14.04,-1.66
-0.03,0.43,1.03,0.09,-15.93,-1.69
0.0,0.46,1.01,-4.4,-17.89,-1.53
0.0,0.46,1.01,-4.4,-17.89,-1.53
0.04,0.45,0.97,-10.12,-19.7,-1.08
0.08,0.42,0.92,-16.32,-21.24,-0.12
0.13,0.38,0.86,-22.11,-22.37,1.5
0.2,0.31,0.82,-26.63,-22.6,3.92
0.28,0.24,0.79,-29.06,-21.43,7.47
0.28,0.24,0.79,-29.06,-21.43,7.47
0.34,0.18,0.77,-28.75,-18.51,12.16
0.38,0.15,0.74,-25.12,-13.58,17.82
0.39,0.15,0.7,-17.74,-6.62,24.19
0.33,0.21,0.67,-6.35,1.93,30.9
0.33,0.21,0.67,9.01,11.27,37.48
0.19,0.34,0.69,9.01,11.27,37.48
0.01,0.51,0.78,27.01,20.25,43.27
-0.15,0.7,0.97,44.88,27.13,47.71
-0.27,0.91,1.19,59.24,30.72,50.63
-0.36,1.12,1.32,66.67,30.8,51.97
-0.36,1.12,1.32,65.48,26.84,52.05
-0.39,1.27,1.38,65.48,26.84,52.05
-0.34,1.28,1.39,55.11,18.41,51.57
-0.22,1.17,1.37,35.74,6.27,51.68
-0.09,0.97,1.36,8.71,-7.85,53.4
-0.01,0.71,1.31,-23.35,-22.02,56.59
-0.01,0.71,1.31,-23.35,-22.02,56.59
0.05,0.41,1.24,-56.89,-35.44,60.63
0.11,0.13,1.14,-88.16,-47.45,65.22
0.2,-0.13,1.04,-114.29,-57.46,70.11
0.33,-0.37,0.97,-133.96,-64.76,74.9
0.45,-0.59,0.91,-146.77,-68.87,79.39
0.45,-0.59,0.91,-146.77,-68.87,79.39
0.63,-0.85,0.89,-152.61,-69.23,83.37
0.79,-1.07,0.65,-149.24,-63.05,87.17
0.83,-1.2,0.42,-135.82,-52.1,91.27
0.75,-1.2,0.32,-112.78,-38.65,96.01
0.58,-1.08,0.35,-80.17,-22.92,101.17
0.58,-1.08,0.35,-80.17,-22.92,101.17
0.36,-0.88,0.51,-40.69,-5.96,105.38
0.2,-0.69,0.7,0.84,10.75,106.95
0.05,-0.45,0.79,40.84,26.11,106.22
-0.14,-0.17,0.86,77.73,38.61,103.51
-0.26,0.04,0.97,110.93,47.46,97.67
-0.26,0.04,0.97,110.93,47.46,97.67
-0.34,0.25,1.11,141.07,52.81,90.04
-0.47,0.56,1.54,166.83,54.39,82.12
-0.66,0.98,1.96,181.33,49.99,74.23
-0.6,1.23,1.96,174.42,37.0,66.13
-0.46,1.21,1.52,148.1,18.31,58.5
-0.46,1.21,1.52,148.1,18.31,58.5
-0.35,1.02,1.38,109.8,-4.25,52.31
-0.17,0.72,1.37,61.96,-29.03,48.04
0.01,0.41,1.29,8.0,-52.55,45.23
0.13,0.09,1.25,-46.1,-73.99,43.3
0.22,-0.24,1.19,-94.24,-92.56,41.53
0.22,-0.24,1.19,-94.24,-92.56,41.53
0.36,-0.49,1.01,-132.12,-105.62,39.37
0.48,-0.7,0.78,-158.94,-111.29,36.8
0.65,-0.99,0.68,-174.44,-110.42,34.6
0.77,-1.23,0.44,-176.02,-101.41,33.96
0.75,-1.37,0.28,-163.06,-86.53,34.71
0.75,-1.37,0.28,-163.06,-86.53,34.71
0.63,-1.37,0.26,-137.53,-68.23,36.16
0.45,-1.19,0.34,-101.3,-47.69,38.01
0.3,-0.89,0.49,-58.08,-27.13,40.19
0.19,-0.59,0.66,-13.82,-7.63,41.81
0.1,-0.35,0.78,27.21,10.68,41.61
0.1,-0.35,0.78,27.21,10.68,41.61
0.04,-0.18,0.87,63.0,27.18,39.19
-0.06,0.03,0.92,93.03,41.03,36.61
-0.23,0.26,0.96,117.78,50.82,34.98
-0.39,0.45,1.06,137.86,55.97,33.48
-0.57,0.69,1.37,152.83,56.67,32.01
-0.57,0.69,1.37,152.83,56.67,32.01
-0.73,0.95,1.85,158.34,52.05,29.26
-0.66,1.09,1.82,146.43,40.69,23.75
-0.44,0.96,1.36,116.63,23.88,16.59
-0.3,0.7,1.17,76.36,3.7,10.31
-0.18,0.41,1.18,29.86,-17.91,6.01
-0.18,0.41,1.18,29.86,-17.91,6.01
-0.05,0.13,1.15,-18.8,-39.16,2.97
0.08,-0.12,1.07,-64.03,-58.22,0.53
0.22,-0.34,0.95,-101.94,-72.3,-1.99
0.34,-0.56,0.81,-130.88,-79.99,-4.64
0.43,-0.77,0.7,-150.6,-81.81,-6.85
0.43,-0.77,0.7,-150.6,-81.81,-6.85
0.55,-1.03,0.65,-160.74,-77.7,-8.13
0.62,-1.24,0.44,-158.58,-65.95,-7.74
0.54,-1.32,0.26,-143.22,-48.82,-5.61
0.33,-1.27,0.26,-116.72,-29.86,-2.37
0.07,-1.07,0.41,-81.23,-11.05,1.11
0.07,-1.07,0.41,-81.23,-11.05,1.11
-0.15,-0.79,0.62,-41.22,5.74,3.68
-0.26,-0.51,0.81,-2.55,19.69,3.94
-0.27,-0.27,0.94,31.46,30.69,1.67
-0.26,-0.05,1.01,59.41,38.65,-1.69
-0.36,0.21,1.09,80.79,42.79,-5.15
-0.36,0.21,1.09,80.79,42.79,-5.15
-0.31,0.26,1.22,95.12,42.67,-11.64
-0.26,0.38,1.34,103.07,41.1,-15.85
-0.36,0.54,1.49,101.95,37.25,-15.51
-0.36,0.55,1.48,88.7,29.03,-16.27
-0.28,0.4,1.28,65.62,18.5,-18.36
-0.28,0.4,1.28,65.62,18.5,-18.36
-0.18,0.14,1.12,36.88,6.45,-21.59
-0.06,-0.11,1.06,6.81,-6.21,-24.99
0.05,-0.3,0.99,-20.72,-17.03,-27.25
0.12,-0.43,0.9,-43.88,-24.5,-28.45
0.18,-0.54,0.83,-61.71,-28.79,-29.32
0.18,-0.54,0.83,-61.71,-28.79,-29.32
0.22,-0.65,0.75,-73.77,-29.84,-30.3
0.26,-0.75,0.67,-79.8,-27.59,-31.22
0.3,-0.84,0.62,-79.44,-22.39,-31.64
0.34,-0.91,0.55,-72.12,-14.07,-31.12
0.29,-0.9,0.49,-57.81,-3.41,-29.61
0.29,-0.9,0.49,-57.81,-3.41,-29.61
0.12,-0.77,0.55,-38.0,7.77,-27.41
-0.14,-0.55,0.73,-15.39,18.04,-25.49
-0.36,-0.32,0.9,6.46,26.3,-25.67
-0.45,-0.15,0.97,24.93,32.1,-28.24
-0.5,-0.0,0.97,39.7,34.76,-31.09
-0.5,-0.0,0.97,39.7,34.76,-31.09
-0.53,0.14,1.03,51.74,33.84,-34.87
-0.48,0.29,1.28,61.16,30.12,-40.79
-0.42,0.52,1.62,64.46,25.14,-46.62
-0.36,0.71,1.66,54.51,17.72,-50.83
-0.28,0.64,1.36,30.34,7.22,-54.26
-0.28,0.64,1.36,30.34,7.22,-54.26
-0.23,0.31,1.14,-1.14,-4.58,-56.82
-0.18,-0.03,1.06,-33.39,-16.56,-57.57
-0.08,-0.27,0.99,-62.19,-27.2,-57.3
0.05,-0.45,0.9,-84.78,-34.61,-57.18
0.14,-0.57,0.83,-100.08,-37.95,-56.82
0.14,-0.57,0.83,-100.08,-37.95,-56.82
0.2,-0.66,0.73,-108.3,-37.44,-55.52
0.28,-0.79,0.66,-109.38,-33.7,-53.28
0.33,-0.91,0.52,-101.85,-25.78,-49.77
0.23,-0.85,0.38,-85.08,-14.87,-44.34
0.02,-0.61,0.43,-61.37,-4.54,-36.96
0.02,-0.61,0.43,-61.37,-4.54,-36.96
-0.21,-0.29,0.67,-34.76,3.33,-28.66
-0.41,-0.02,0.9,-10.88,7.79,-21.86
-0.51,0.12,0.96,7.47,8.54,-19.1
-0.54,0.15,0.9,21.57,6.35,-21.11
-0.41,0.06,0.9,32.9,1.98,-27.21
-0.41,0.06,0.9,32.9,1.98,-27.21
-0.26,0.23,1.19,42.15,-3.57,-31.54
-0.19,0.41,1.44,41.38,-11.26,-32.38
-0.06,0.45,1.34,27.76,-22.94,-32.11
0.08,0.28,1.07,5.23,-34.5,-32.69
0.16,0.04,0.92,-21.03,-44.45,-33.98
0.16,0.04,0.92,-21.03,-44.45,-33.98
0.22,-0.21,0.87,-48.61,-51.79,-35.88
0.29,-0.39,0.86,-75.14,-56.13,-37.51
0.36,-0.56,0.84,-97.73,-56.56,-38.41
0.47,-0.77,0.78,-113.78,-51.91,-38.95
0.52,-0.97,0.55,-120.14,-40.39,-39.44
0.52,-0.97,0.55,-120.14,-40.39,-39.44
0.5,-1.1,0.28,-115.81,-24.16,-40.14
0.41,-1.12,0.15,-101.56,-6.54,-40.28
0.27,-1.01,0.22,-77.25,11.01,-39.03
0.12,-0.88,0.43,-46.03,27.56,-37.22
0.01,-0.65,0.65,-12.55,42.03,-36.0
0.01,-0.65,0.65,-12.55,42.03,-36.0
-0.09,-0.42,0.77,17.85,54.23,-35.87
-0.17,-0.26,0.8,44.14,63.56,-35.93
-0.27,-0.14,0.84,67.38,70.14,-34.62
-0.46,0.04,0.98,86.82,73.15,-33.2
-0.56,0.12,1.1,102.24,71.99,-36.78
-0.56,0.12,1.1,102.24,71.99,-36.78
-0.47,0.19,1.27,115.26,69.79,-45.53
-0.42,0.41,1.51,123.01,66.75,-53.31
-0.35,0.59,1.63,118.96,59.35,-58.81
-0.32,0.68,1.44,100.6,48.21,-61.19
-0.27,0.56,1.22,72.03,35.66,-62.59
-0.27,0.56,1.22,72.03,35.66,-62.59
-0.24,0.33,1.19,38.8,22.23,-63.81
-0.16,0.1,1.17,4.4,7.85,-64.48
-0.08,-0.06,1.07,-28.1,-5.38,-64.03
-0.01,-0.21,0.95,-55.57,-15.27,-62.74
0.06,-0.34,0.88,-76.68,-21.51,-61.49
0.06,-0.34,0.88,-76.68,-21.51,-61.49
0.15,-0.48,0.81,-91.72,-24.36,-60.56
0.27,-0.67,0.76,-100.25,-23.32,-59.66
0.36,-0.85,0.56,-100.01,-16.98,-58.49
0.35,-0.94,0.36,-89.87,-6.85,-56.37
0.18,-0.89,0.29,-70.03,4.33,-52.62
0.18,-0.89,0.29,-70.03,4.33,-52.62
-0.1,-0.67,0.41,-42.05,14.51,-48.02
-0.34,-0.39,0.62,-10.12,22.45,-45.21
-0.42,-0.17,0.84,20.64,27.45,-46.57
-0.34,0.03,1.0,46.67,30.41,-49.98
-0.3,0.23,1.12,66.35,31.24,-51.87
-0.3,0.23,1.12,66.35,31.24,-51.87
-0.23,0.36,1.31,79.59,29.93,-54.2
-0.2,0.46,1.48,85.91,27.58,-56.81
-0.22,0.56,1.54,82.12,23.27,-58.62
-0.22,0.59,1.39,66.43,15.99,-59.57
-0.19,0.47,1.16,41.47,6.63,-59.88
-0.19,0.47,1.16,41.47,6.63,-59.88
-0.13,0.24,1.09,11.96,-4.18,-59.8
-0.03,0.0,1.1,-18.12,-15.58,-58.96
0.09,-0.18,1.01,-45.58,-25.04,-57.14
0.19,-0.34,0.9,-67.56,-30.47,-55.11
0.25,-0.51,0.81,-82.53,-31.6,-53.6
0.25,-0.51,0.81,-82.53,-31.6,-53.6
0.32,-0.69,0.74,-90.16,-28.79,-52.61
0.38,-0.85,0.64,-89.83,-21.74,-51.31
0.36,-0.9,0.46,-80.64,-10.81,-48.89
0.27,-0.85,0.36,-63.22,1.42,-45.23
0.14,-0.68,0.43,-38.74,13.46,-40.68
0.14,-0.68,0.43,-38.74,13.46,-40.68
0.02,-0.48,0.66,-10.86,24.73,-36.57
-0.05,-0.28,0.85,15.31,34.74,-33.74
-0.11,-0.1,0.93,36.14,43.2,-31.63
-0.21,0.04,0.96,51.1,49.07,-30.24
-0.29,0.08,0.98,61.58,52.05,-30.77
-0.29,0.08,0.98,61.58,52.05,-30.77
-0.39,0.12,1.02,69.33,52.44,-32.62
-0.5,0.21,1.14,74.65,49.84,-35.71
-0.58,0.42,1.46,75.91,43.43,-40.41
-0.48,0.62,1.61,68.19,32.54,-46.96
-0.22,0.64,1.43,49.23,18.56,-54.03
-0.22,0.64,1.43,49.23,18.56,-54.03
-0.02,0.53,1.28,21.87,4.31,-59.79
0.08,0.36,1.22,-11.76,-8.18,-63.77
0.16,0.18,1.1,-49.43,-17.44,-66.56
0.23,-0.03,0.98,-86.84,-22.79,-68.57
0.29,-0.27,0.89,-119.28,-23.94,-69.58
0.29,-0.27,0.89,-119.28,-23.94,-69.58
0.34,-0.54,0.81,-143.17,-20.95,-69.62
0.43,-0.87,0.71,-155.94,-13.62,-68.63
0.44,-1.09,0.45,-156.2,-1.85,-65.95
0.36,-1.17,0.28,-144.54,12.1,-61.46
0.22,-1.12,0.24,-121.29,27.19,-55.78
0.22,-1.12,0.24,-121.29,27.19,-55.78
0.04,-0.94,0.36,-88.19,42.35,-49.42
-0.16,-0.62,0.6,-50.02,55.7,-42.95
-0.33,-0.25,0.86,-13.79,65.9,-37.49
-0.44,0.05,1.05,15.57,72.7,-34.23
-0.5,0.25,1.11,36.65,76.15,-33.43
-0.5,0.25,1.11,36.65,76.15,-33.43
-0.55,0.34,1.14,50.92,75.82,-35.28
-0.6,0.4,1.25,60.3,71.49,-39.56
-0.57,0.48,1.36,64.41,62.58,-45.2
-0.45,0.57,1.41,61.68,49.4,-50.51
-0.27,0.6,1.4,51.68,34.2,-54.02
-0.27,0.6,1.4,51.68,34.2,-54.02
-0.13,0.55,1.39,34.07,19.35,-55.05
-0.06,0.43,1.3,8.55,6.4,-54.17
-0.05,0.23,1.14,-23.25,-4.12,-52.57
-0.06,0.01,1.03,-56.42,-12.36,-50.82
-0.02,-0.24,0.9,-86.12,-18.28,-48.86
-0.02,-0.24,0.9,-86.12,-18.28,-48.86
0.03,-0.5,0.75,-108.13,-21.85,-46.32
0.13,-0.81,0.64,-118.99,-23.44,-42.92
0.16,-0.96,0.43,-116.67,-22.36,-37.9
0.12,-0.95,0.31,-103.15,-19.62,-31.91
0.09,-0.81,0.33,-80.63,-16.06,-25.7
0.09,-0.81,0.33,-80.63,-16.06,-25.7
0.07,-0.6,0.51,-51.47,-11.08,-19.5
0.04,-0.38,0.73,-20.84,-4.7,-13.79
-0.03,-0.15,0.89,6.75,2.45,-8.93
-0.14,0.03,0.96,28.84,9.27,-4.59
-0.31,0.17,1.0,45.37,14.13,-0.34
-0.31,0.17,1.0,45.37,14.13,-0.34
-0.42,0.27,1.07,56.72,16.26,1.27
-0.42,0.26,1.13,63.37,15.58,-0.86
-0.4,0.26,1.19,65.96,12.38,-3.98
-0.35,0.29,1.23,63.6,6.86,-6.4
-0.25,0.32,1.25,55.7,-0.22,-8.32
-0.25,0.32,1.25,55.7,-0.22,-8.32
-0.1,0.31,1.2,42.33,-7.44,-10.21
0.04,0.25,1.12,24.54,-13.43,-12.14
0.13,0.12,1.03,4.61,-17.38,-13.67
0.2,-0.05,0.96,-14.61,-19.27,-14.24
0.26,-0.23,0.88,-30.46,-19.18,-13.54
0.26,-0.23,0.88,-30.46,-19.18,-13.54
0.3,-0.39,0.81,-41.21,-16.88,-11.53
0.36,-0.54,0.76,-45.82,-12.04,-8.36
0.37,-0.66,0.66,-43.23,-4.07,-3.98
0.3,-0.7,0.57,-33.52,6.27,1.51
0.19,-0.66,0.54,-17.74,17.51,7.58
0.19,-0.66,0.54,-17.74,17.51,7.58
0.06,-0.56,0.58,2.91,28.8,13.63
-0.07,-0.41,0.68,26.22,39.22,18.92
-0.16,-0.23,0.79,49.51,48.0,22.62
-0.25,-0.03,0.88,70.69,54.89,24.15
-0.34,0.17,0.97,88.24,59.0,23.0
-0.34,0.17,0.97,88.24,59.0,23.0
-0.37,0.37,1.09,101.18,59.54,19.57
-0.33,0.58,1.24,108.35,56.32,15.46
-0.25,0.77,1.37,108.44,49.76,11.49
-0.08,0.82,1.47,100.84,40.78,6.96
0.08,0.74,1.54,85.89,31.07,3.01
0.08,0.74,1.54,85.89,31.07,3.01
0.16,0.58,1.55,63.63,22.62,1.22
0.17,0.39,1.45,34.65,16.97,1.04
0.13,0.17,1.33,2.31,14.34,1.17
0.09,-0.08,1.26,-28.91,13.53,1.04
0.09,-0.35,1.16,-55.21,13.18,0.89
0.09,-0.35,1.16,-55.21,13.18,0.89
0.08,-0.58,1.04,-73.46,12.54,1.22
0.1,-0.77,0.93,-82.46,12.49,2.01
0.08,-0.87,0.79,-82.01,13.62,3.53
-0.0,-0.86,0.72,-72.83,14.38,6.03
-0.13,-0.77,0.74,-56.35,14.58,8.7
-0.13,-0.77,0.74,-56.35,14.58,8.7
-0.28,-0.61,0.83,-34.87,14.16,10.46
-0.43,-0.36,0.96,-11.8,12.0,10.64
-0.5,-0.09,1.09,9.73,7.63,9.06
-0.51,0.16,1.19,27.12,1.13,6.32
-0.53,0.39,1.27,39.02,-7.74,3.49
-0.53,0.39,1.27,39.02,-7.74,3.49
