ax,ay,az,gx,gy,gz
-0.1,0.06,1.0,8.13,-3.71,3.59
-0.1,0.06,1.0,8.13,-3.71,3.59
-0.09,0.08,1.02,8.79,-5.15,3.49
-0.07,0.09,1.03,8.84,-6.54,3.34
-0.06,0.09,1.04,8.11,-7.66,3.14
-0.05,0.08,1.04,6.62,-8.26,2.88
-0.04,0.06,1.02,4.66,-8.23,2.47
-0.04,0.06,1.02,4.66,-8.23,2.47
-0.04,0.04,1.01,2.63,-7.63,1.94
-0.04,0.01,0.99,0.95,-6.59,1.35
-0.04,-0.0,0.97,-0.04,-5.27,0.78
-0.04,-0.01,0.96,-0.22,-3.86,0.29
-0.05,-0.0,0.96,0.43,-2.49,-0.08
-0.05,-0.0,0.96,0.43,-2.49,-0.08
-0.05,0.01,0.96,1.76,-1.34,-0.21
-0.06,0.04,0.97,3.4,-0.51,-0.17
-0.07,0.06,0.99,5.0,0.07,-0.03
-0.08,0.08,1.0,6.3,0.32,0.11
-0.08,0.1,1.02,7.06,0.3,0.16
-0.08,0.1,1.02,7.06,0.3,0.16
-0.09,0.11,1.03,7.13,0.09,0.11
-0.08,0.11,1.03,6.43,-0.35,-0.0
-0.07,0.1,1.02,5.0,-0.91,-0.25
-0.06,0.09,1.02,3.09,-1.54,-0.62
-0.04,0.07,1.01,1.05,-2.06,-1.02
-0.04,0.07,1.01,1.05,-2.06,-1.02
-0.03,0.05,1.0,-0.91,-2.32,-1.47
-0.01,0.04,0.99,-2.57,-2.3,-1.85
-0.01,0.02,0.98,-3.84,-1.91,-2.09
-0.02,0.01,0.97,-4.63,-1.27,-2.24
-0.02,-0.0,0.96,-4.78,-0.45,-2.3
-0.02,-0.0,0.96,-4.78,-0.45,-2.3
-0.03,-0.01,0.95,-4.24,0.42,-2.3
-0.03,0.0,0.96,-2.99,1.26,-2.21
-0.04,0.02,0.96,-1.25,1.99,-2.08
-0.04,0.04,0.97,0.69,2.67,-1.92
-0.05,0.06,0.98,2.56,3.16,-1.73
-0.05,0.06,0.98,2.56,3.16,-1.73
-0.06,0.08,0.99,4.14,3.49,-1.54
-0.07,0.1,1.0,5.22,3.61,-1.4
-0.08,0.12,1.01,5.69,3.44,-1.36
-0.09,0.13,1.02,5.49,2.99,-1.46
-0.08,0.13,1.02,4.57,2.35,-1.71
-0.08,0.13,1.02,4.57,2.35,-1.71
-0.07,0.12,1.02,3.02,1.7,-2.05
-0.07,0.1,1.02,1.05,1.2,-2.42
-0.07,0.08,1.0,-1.0,0.84,-2.76
-0.07,0.05,0.99,-2.78,0.59,-2.98
-0.05,0.04,0.97,-4.0,0.43,-3.05
-0.05,0.04,0.97,-4.0,0.43,-3.05
-0.05,0.03,0.97,-4.5,0.42,-2.94
-0.05,0.02,0.97,-4.27,0.64,-2.69
-0.05,0.03,0.97,-3.41,1.0,-2.31
-0.05,0.04,0.96,-2.04,1.39,-1.82
-0.05,0.05,0.97,-0.29,1.79,-1.24
-0.05,0.05,0.97,-0.29,1.79,-1.24
-0.05,0.07,0.97,1.6,2.08,-0.58
-0.06,0.09,0.98,3.38,2.23,0.15
-0.07,0.1,0.98,4.82,2.17,0.92
-0.07,0.11,0.99,5.78,1.87,1.65
-0.06,0.11,1.0,6.3,1.45,2.3
-0.06,0.11,1.0,6.3,1.45,2.3
-0.06,0.12,1.01,6.39,1.07,2.76
-0.06,0.12,1.01,6.01,0.78,3.09
-0.06,0.11,1.01,5.14,0.6,3.23
-0.06,0.09,1.0,3.8,0.49,3.21
-0.05,0.06,0.99,2.29,0.45,3.02
-0.05,0.06,0.99,2.29,0.45,3.02
-0.04,0.04,0.98,1.0,0.58,2.76
-0.04,0.03,0.97,0.19,0.82,2.53
-0.04,0.03,0.97,-0.12,1.15,2.36
-0.04,0.03,0.96,-0.08,1.47,2.25
-0.03,0.03,0.96,0.31,1.74,2.23
-0.03,0.03,0.96,0.31,1.74,2.23
-0.03,0.03,0.95,1.01,1.99,2.3
-0.03,0.04,0.95,2.03,2.28,2.46
-0.04,0.06,0.96,3.31,2.56,2.67
-0.05,0.08,0.97,4.52,2.75,2.88
-0.06,0.1,0.98,5.36,2.8,3.06
-0.06,0.1,0.98,5.36,2.8,3.06
-0.06,0.1,0.99,5.75,2.65,3.2
-0.06,0.1,0.99,5.75,2.44,3.28
-0.05,0.09,0.99,5.51,2.28,3.26
-0.05,0.09,0.99,5.16,2.23,3.14
-0.04,0.09,0.99,4.78,2.26,3.01
-0.04,0.09,0.99,4.78,2.26,3.01
-0.04,0.08,0.98,4.42,2.44,2.9
-0.04,0.08,0.98,4.14,2.77,2.78
-0.04,0.09,0.98,4.01,3.2,2.59
-0.04,0.09,0.97,4.05,3.6,2.35
-0.03,0.1,0.97,4.23,3.93,2.13
-0.03,0.1,0.97,4.23,3.93,2.13
-0.03,0.11,0.98,4.51,4.15,2.05
-0.03,0.12,0.98,4.83,4.25,2.12
-0.04,0.15,0.98,5.18,4.2,2.27
-0.05,0.17,0.99,5.44,3.89,2.49
-0.05,0.19,1.0,5.49,3.27,2.78
-0.05,0.19,1.0,5.49,3.27,2.78
-0.06,0.21,1.01,5.2,2.34,3.16
-0.1,0.25,1.01,4.66,1.11,3.57
-0.14,0.31,1.02,3.83,-0.67,3.8
-0.17,0.37,1.05,2.38,-3.53,3.81
-0.23,0.46,1.09,-0.12,-7.79,3.84
-0.23,0.46,1.09,-0.12,-7.79,3.84
-0.29,0.55,1.12,-4.1,-13.77,3.81
-0.33,0.65,1.15,-10.44,-21.82,3.43
-0.31,0.72,1.14,-19.94,-32.44,3.02
-0.26,0.77,1.15,-32.63,-45.44,3.3
-0.16,0.77,1.12,-49.25,-60.63,4.13
-0.16,0.77,1.12,-49.25,-60.63,4.13
0.0,0.69,1.06,-69.43,-76.63,5.47
0.16,0.53,1.01,-91.02,-91.39,7.53
0.31,0.34,0.97,-111.89,-103.57,9.93
0.46,0.13,0.92,-130.27,-112.12,12.31
0.6,-0.06,0.87,-144.35,-116.53,14.61
0.6,-0.06,0.87,-144.35,-116.53,14.61
0.78,-0.3,0.87,-152.62,-116.32,17.03
0.91,-0.5,0.71,-152.39,-109.53,20.13
0.93,-0.65,0.53,-142.9,-97.48,24.15
0.86,-0.73,0.48,-124.86,-82.86,29.42
0.76,-0.74,0.49,-98.43,-66.2,35.52
0.76,-0.74,0.49,-98.43,-66.2,35.52
0.67,-0.66,0.52,-65.54,-48.3,41.49
0.59,-0.51,0.58,-28.78,-30.29,46.92
0.5,-0.31,0.66,9.22,-12.86,51.55
0.42,-0.11,0.74,46.25,3.32,54.94
0.35,0.07,0.81,80.8,17.67,57.14
0.35,0.07,0.81,80.8,17.67,57.14
0.28,0.25,0.96,111.67,29.84,58.36
0.19,0.44,1.14,138.0,40.42,58.91
0.02,0.67,1.33,158.3,49.21,59.2
-0.2,0.92,1.58,168.8,53.55,59.04
-0.29,1.09,1.54,164.63,50.95,57.59
-0.29,1.09,1.54,164.63,50.95,57.59
-0.23,1.09,1.31,146.51,42.84,55.01
-0.12,0.96,1.29,119.26,31.03,52.57
0.01,0.74,1.3,85.03,16.93,51.01
0.15,0.5,1.25,47.04,2.86,50.26
0.25,0.26,1.18,9.95,-10.03,50.19
0.25,0.26,1.18,9.95,-10.03,50.19
0.32,0.04,1.12,-22.97,-20.36,50.32
0.39,-0.16,1.04,-49.87,-27.28,50.15
0.47,-0.35,0.99,-69.65,-30.46,49.61
0.63,-0.6,0.99,-81.41,-29.26,49.32
0.63,-0.6,0.99,-82.98,-21.77,50.25
0.72,-0.8,0.84,-82.98,-21.77,50.25
0.62,-0.91,0.69,-74.18,-10.01,52.24
0.35,-0.88,0.63,-55.85,2.78,55.04
0.05,-0.69,0.67,-29.16,14.71,57.47
-0.14,-0.42,0.85,2.11,24.08,57.96
-0.14,-0.42,0.85,33.17,29.66,56.15
-0.21,-0.12,1.05,33.17,29.66,56.15
-0.21,0.2,1.28,60.18,31.41,52.44
-0.18,0.48,1.47,80.17,29.83,47.06
-0.17,0.86,1.68,88.94,24.62,40.52
-0.16,0.91,1.58,82.67,13.74,35.75
-0.16,0.91,1.58,82.67,13.74,35.75
-0.13,0.78,1.41,67.05,1.03,33.32
-0.06,0.48,1.28,44.66,-14.07,32.16
0.03,0.25,1.18,18.76,-30.7,32.36
0.1,0.1,1.08,-8.98,-47.8,32.97
0.17,-0.04,0.98,-36.35,-63.88,32.55
0.17,-0.04,0.98,-36.35,-63.88,32.55
0.29,-0.22,0.88,-61.53,-77.18,30.6
0.48,-0.45,0.84,-82.95,-86.53,27.95
0.68,-0.71,0.76,-98.33,-89.2,25.69
0.75,-0.89,0.56,-104.86,-83.88,24.09
0.7,-1.02,0.43,-102.27,-72.75,22.69
0.7,-1.02,0.43,-102.27,-72.75,22.69
0.55,-1.08,0.41,-89.93,-56.68,21.32
0.28,-0.99,0.5,-67.54,-37.53,20.14
-0.03,-0.72,0.67,-38.24,-18.96,18.81
-0.27,-0.4,0.87,-7.51,-3.54,16.1
-0.39,-0.11,1.1,20.81,7.79,11.3
-0.39,-0.11,1.1,20.81,7.79,11.3
-0.37,0.12,1.34,44.2,15.63,4.55
-0.29,0.31,1.49,59.88,20.11,-2.15
-0.29,0.49,1.5,65.3,20.2,-5.96
-0.31,0.55,1.4,60.14,15.31,-7.74
-0.25,0.42,1.27,46.98,6.19,-8.96
-0.25,0.42,1.27,46.98,6.19,-8.96
-0.14,0.2,1.19,29.11,-5.49,-9.21
-0.02,-0.01,1.12,9.5,-18.11,-8.46
0.1,-0.2,1.05,-9.17,-29.38,-7.55
0.26,-0.4,0.98,-24.71,-37.19,-6.94
0.4,-0.59,0.86,-34.92,-38.91,-6.4
0.4,-0.59,0.86,-34.92,-38.91,-6.4
0.43,-0.74,0.68,-38.28,-34.2,-6.2
0.39,-0.84,0.55,-34.82,-25.53,-6.41
0.26,-0.86,0.48,-24.2,-14.3,-6.96
0.08,-0.7,0.47,-6.41,-1.95,-7.85
-0.08,-0.43,0.56,15.69,9.54,-9.02
-0.08,-0.43,0.56,15.69,9.54,-9.02
-0.2,-0.17,0.73,37.99,18.37,-10.38
-0.24,0.08,1.0,57.41,24.42,-11.8
-0.3,0.3,1.32,70.94,28.49,-13.22
-0.37,0.49,1.48,73.61,29.0,-14.88
-0.4,0.56,1.28,62.43,24.35,-17.04
-0.4,0.56,1.28,62.43,24.35,-17.04
-0.4,0.47,1.06,41.18,14.75,-19.34
-0.32,0.25,1.03,14.59,0.54,-21.14
-0.17,0.02,1.07,-15.15,-16.66,-21.78
-0.03,-0.17,1.08,-45.74,-33.91,-21.17
0.08,-0.34,1.02,-74.49,-48.26,-20.2
0.08,-0.34,1.02,-74.49,-48.26,-20.2
0.26,-0.58,0.98,-98.89,-57.38,-20.01
0.41,-0.82,0.8,-115.52,-58.6,-20.92
0.45,-1.05,0.57,-122.54,-52.4,-23.14
0.41,-1.21,0.42,-119.45,-41.46,-26.44
0.32,-1.29,0.37,-105.7,-27.27,-30.0
0.32,-1.29,0.37,-105.7,-27.27,-30.0
0.19,-1.2,0.45,-82.09,-11.52,-33.07
0.07,-0.96,0.54,-52.13,3.93,-34.92
-0.14,-0.51,0.75,-19.68,17.31,-33.77
-0.32,-0.28,0.89,9.7,26.87,-31.65
-0.43,-0.13,1.01,36.56,32.7,-29.56
-0.43,-0.13,1.01,36.56,32.7,-29.56
-0.51,0.05,1.21,59.56,36.11,-28.43
-0.57,0.3,1.46,74.92,35.72,-29.86
-0.44,0.43,1.54,78.81,30.16,-35.45
-0.27,0.45,1.39,70.88,20.49,-40.44
-0.2,0.3,1.25,53.39,8.36,-42.4
-0.2,0.3,1.25,53.39,8.36,-42.4
-0.14,0.05,1.23,30.65,-5.16,-43.22
-0.02,-0.15,1.21,6.74,-17.35,-44.43
0.13,-0.32,1.1,-15.38,-25.6,-46.85
0.28,-0.51,0.98,-32.69,-28.16,-49.8
0.37,-0.71,0.81,-42.46,-24.11,-52.82
0.37,-0.71,0.81,-42.46,-24.11,-52.82
0.35,-0.87,0.62,-43.43,-14.61,-55.96
0.3,-0.97,0.5,-35.86,-2.5,-58.75
0.15,-0.89,0.44,-19.97,10.59,-60.31
-0.0,-0.63,0.49,3.03,23.35,-60.99
-0.11,-0.32,0.62,29.51,34.44,-60.61
-0.11,-0.32,0.62,29.51,34.44,-60.61
-0.17,-0.07,0.82,55.14,42.71,-58.95
-0.24,0.15,1.05,77.58,48.74,-56.14
-0.42,0.4,1.31,94.27,52.94,-52.97
-0.61,0.67,1.54,100.95,52.77,-51.67
-0.61,0.84,1.47,93.14,45.38,-53.93
-0.61,0.84,1.47,93.14,45.38,-53.93
-0.53,0.77,1.23,71.67,33.18,-57.55
-0.44,0.51,1.24,42.89,16.51,-59.03
-0.28,0.27,1.31,10.79,-2.45,-58.71
-0.09,0.12,1.25,-22.31,-20.71,-58.37
0.04,-0.0,1.11,-53.84,-36.11,-58.74
0.04,-0.0,1.11,-53.84,-36.11,-58.74
0.1,-0.17,0.98,-81.62,-47.44,-60.52
0.15,-0.36,0.92,-104.39,-54.58,-63.68
0.2,-0.53,0.84,-121.77,-56.95,-67.36
0.25,-0.68,0.76,-132.61,-53.67,-71.08
0.31,-0.78,0.58,-134.59,-44.51,-74.85
0.31,-0.78,0.58,-134.59,-44.51,-74.85
0.29,-0.85,0.39,-127.26,-31.39,-78.64
0.21,-0.82,0.31,-110.57,-17.15,-80.81
0.02,-0.57,0.37,-86.32,-3.73,-80.0
-0.18,-0.25,0.52,-58.22,7.63,-77.63
-0.3,-0.01,0.65,-30.26,16.21,-75.57
-0.3,-0.01,0.65,-30.26,16.21,-75.57
-0.36,0.14,0.77,-4.58,21.61,-74.97
-0.29,0.18,0.87,18.25,24.9,-76.68
-0.24,0.27,1.01,37.97,27.91,-77.1
-0.31,0.46,1.32,51.9,29.51,-74.2
-0.34,0.65,1.45,53.78,26.27,-70.85
-0.34,0.65,1.45,53.78,26.27,-70.85
-0.27,0.65,1.11,41.27,18.49,-68.4
-0.24,0.48,0.98,20.93,9.62,-66.4
-0.21,0.23,1.08,-2.98,-0.79,-64.8
-0.1,0.02,1.13,-27.75,-11.53,-63.59
0.02,-0.12,1.04,-50.46,-19.47,-62.71
0.02,-0.12,1.04,-50.46,-19.47,-62.71
0.1,-0.24,0.91,-68.49,-23.34,-62.41
0.13,-0.35,0.85,-80.01,-23.08,-62.78
0.16,-0.46,0.77,-84.93,-18.84,-63.91
0.18,-0.56,0.69,-83.14,-11.19,-65.48
0.15,-0.59,0.59,-74.03,-1.23,-66.74
0.15,-0.59,0.59,-74.03,-1.23,-66.74
0.04,-0.47,0.56,-57.81,9.2,-67.03
-0.06,-0.26,0.7,-36.65,18.53,-66.48
-0.09,-0.05,0.88,-14.72,26.27,-65.06
-0.14,0.18,1.02,3.92,31.71,-61.78
-0.2,0.33,1.08,16.9,33.89,-57.6
-0.2,0.33,1.08,16.9,33.89,-57.6
-0.24,0.41,1.05,24.61,33.02,-53.38
-0.26,0.42,1.07,28.6,29.69,-49.58
-0.26,0.43,1.18,28.83,24.06,-46.23
-0.23,0.46,1.29,23.26,15.94,-43.48
-0.13,0.45,1.27,10.4,5.76,-41.7
-0.13,0.45,1.27,10.4,5.76,-41.7
0.0,0.32,1.2,-8.22,-4.69,-40.53
0.09,0.13,1.19,-29.43,-13.46,-39.39
0.13,-0.04,1.16,-50.73,-19.67,-38.28
0.17,-0.2,1.08,-69.92,-22.9,-37.8
0.2,-0.37,1.01,-85.07,-23.12,-38.54
0.2,-0.37,1.01,-85.07,-23.12,-38.54
0.24,-0.54,0.95,-94.42,-19.83,-40.57
0.27,-0.71,0.77,-95.63,-11.92,-43.44
0.22,-0.77,0.56,-86.67,-0.82,-46.25
0.11,-0.71,0.48,-67.93,9.64,-47.85
-0.05,-0.48,0.6,-41.4,17.72,-47.49
-0.05,-0.48,0.6,-41.4,17.72,-47.49
-0.18,-0.17,0.78,-11.34,22.91,-45.85
-0.28,0.15,0.95,16.87,24.53,-43.56
-0.32,0.43,1.03,40.1,22.71,-41.06
-0.29,0.62,1.08,58.07,17.96,-38.61
-0.26,0.73,1.17,71.78,11.94,-35.43
-0.26,0.73,1.17,71.78,11.94,-35.43
-0.29,0.86,1.43,80.27,5.72,-31.01
-0.31,1.01,1.61,77.87,-2.77,-26.28
-0.18,1.0,1.3,60.39,-14.75,-22.49
-0.03,0.84,1.13,33.3,-26.47,-19.64
0.06,0.61,1.2,1.56,-36.04,-17.15
0.06,0.61,1.2,1.56,-36.04,-17.15
0.1,0.33,1.19,-32.55,-42.61,-14.88
0.12,0.08,1.07,-65.3,-46.92,-13.26
0.16,-0.17,0.93,-92.4,-48.84,-12.62
0.22,-0.43,0.84,-110.8,-47.28,-12.73
0.26,-0.66,0.77,-119.11,-41.77,-13.09
0.26,-0.66,0.77,-119.11,-41.77,-13.09
0.3,-0.87,0.67,-116.99,-33.16,-13.43
0.29,-0.97,0.43,-103.46,-21.47,-13.64
0.2,-0.94,0.27,-78.04,-9.27,-13.42
0.06,-0.67,0.36,-42.92,0.71,-11.91
-0.04,-0.31,0.61,-3.58,8.04,-9.54
-0.04,-0.31,0.61,-3.58,8.04,-9.54
-0.07,0.04,0.84,33.3,13.02,-7.26
-0.08,0.35,0.99,62.84,15.88,-5.46
-0.1,0.61,1.06,83.05,16.4,-4.33
-0.11,0.78,1.08,94.45,15.13,-4.24
-0.11,0.87,1.1,98.74,13.26,-5.27
-0.11,0.87,1.1,98.74,13.26,-5.27
-0.06,0.88,1.21,96.15,11.11,-6.89
0.0,0.83,1.28,84.46,7.8,-8.0
0.08,0.68,1.12,62.62,3.2,-7.79
0.12,0.45,1.0,34.67,-0.61,-6.69
0.11,0.18,1.01,5.92,-2.39,-5.46
0.11,0.18,1.01,5.92,-2.39,-5.46
0.09,-0.06,0.98,-19.84,-2.38,-4.17
0.09,-0.27,0.9,-40.38,-0.52,-3.1
0.08,-0.42,0.8,-54.3,2.9,-2.62
0.07,-0.53,0.72,-60.45,7.76,-2.9
0.09,-0.61,0.64,-58.31,14.09,-3.86
0.09,-0.61,0.64,-58.31,14.09,-3.86
0.13,-0.64,0.55,-47.92,21.27,-4.94
0.18,-0.59,0.49,-29.81,28.56,-5.45
0.22,-0.46,0.55,-5.4,35.14,-5.1
0.19,-0.28,0.67,22.67,40.79,-3.87
0.09,-0.0,0.8,51.48,45.28,-1.58
0.09,-0.0,0.8,51.48,45.28,-1.58
-0.06,0.32,0.97,77.67,47.79,1.65
-0.21,0.7,1.29,97.0,46.74,5.14
-0.32,1.08,1.54,102.92,40.81,7.68
-0.35,1.25,1.4,91.87,30.39,8.22
-0.32,1.16,1.27,69.79,17.73,7.28
-0.32,1.16,1.27,69.79,17.73,7.28
-0.22,0.89,1.23,42.62,4.0,5.81
-0.09,0.57,1.11,12.36,-9.81,4.39
0.03,0.33,1.01,-17.27,-22.61,3.9
0.16,0.12,0.93,-44.16,-32.86,4.45
0.25,-0.05,0.86,-67.82,-40.43,7.67
0.25,-0.05,0.86,-67.82,-40.43,7.67
0.31,-0.15,0.83,-87.7,-45.24,12.57
0.53,-0.44,0.92,-103.71,-47.3,13.85
0.84,-0.84,0.86,-112.14,-43.03,12.79
0.93,-0.99,0.55,-109.52,-31.24,14.33
0.89,-1.16,0.24,-96.16,-16.56,17.77
0.89,-1.16,0.24,-96.16,-16.56,17.77
0.78,-1.22,0.07,-69.33,-1.11,22.61
0.62,-1.12,0.08,-29.38,15.64,28.22
0.42,-0.81,0.28,18.62,32.25,34.06
0.2,-0.41,0.51,67.58,46.76,39.73
-0.01,-0.04,0.71,112.33,57.71,44.23
-0.01,-0.04,0.71,112.33,57.71,44.23
-0.24,0.37,0.98,149.96,64.69,46.53
-0.46,0.84,1.31,177.55,68.1,43.44
-0.48,1.13,1.59,191.09,66.39,33.19
-0.51,1.39,1.58,188.69,59.6,23.91
-0.62,1.65,1.48,171.73,49.3,18.64
-0.62,1.65,1.48,171.73,49.3,18.64
-0.63,1.73,1.34,141.62,34.0,12.47
-0.48,1.58,1.15,102.09,12.76,4.79
-0.17,1.32,0.99,57.91,-12.15,-2.17
0.15,1.01,0.89,11.34,-35.61,-4.59
0.38,0.69,0.83,-35.67,-53.42,-1.39
0.38,0.69,0.83,-35.67,-53.42,-1.39
0.51,0.4,0.76,-81.56,-64.14,5.65
0.58,0.11,0.71,-124.78,-67.48,14.08
0.66,-0.18,0.77,-162.69,-62.98,22.06
0.7,-0.56,0.91,-191.86,-50.18,28.66
0.64,-1.08,0.96,-205.82,-33.19,34.37
0.64,-1.08,0.96,-205.82,-33.19,34.37
0.55,-1.31,0.53,-198.2,-17.72,41.15
0.44,-1.39,0.12,-176.21,-1.59,47.84
0.28,-1.36,-0.07,-141.65,16.7,52.68
0.06,-1.12,0.05,-92.33,34.45,55.38
-0.12,-0.63,0.37,-34.01,48.2,56.11
-0.12,-0.63,0.37,-34.01,48.2,56.11
-0.24,-0.02,0.76,22.85,57.24,53.74
-0.23,0.53,1.14,70.65,63.05,47.77
-0.18,1.13,1.57,104.83,65.53,41.14
-0.03,1.31,1.59,120.77,64.45,35.25
0.02,1.29,1.45,124.62,61.16,33.96
0.02,1.29,1.45,124.62,61.16,33.96
-0.06,1.13,1.49,120.03,56.36,35.17
-0.08,0.89,1.44,105.07,48.5,36.77
0.01,0.65,1.24,81.07,39.28,38.86
0.14,0.45,1.06,52.5,31.12,42.43
0.22,0.25,0.99,23.37,25.34,46.49
0.22,0.25,0.99,23.37,25.34,46.49
0.25,0.0,0.99,-3.49,21.83,49.52
0.26,-0.25,0.95,-24.5,19.18,51.61
0.29,-0.44,0.81,-36.53,16.86,53.95
0.31,-0.52,0.65,-39.78,16.05,57.12
0.29,-0.5,0.58,-35.1,16.67,60.85
0.29,-0.5,0.58,-35.1,16.67,60.85
0.24,-0.38,0.65,-22.41,18.38,64.35
0.2,-0.21,0.82,-4.14,20.85,67.02
0.12,-0.0,1.03,14.89,22.84,69.07
0.02,0.22,1.22,30.24,23.3,70.43
-0.03,0.38,1.31,38.49,21.56,70.69
-0.03,0.38,1.31,38.49,21.56,70.69
-0.05,0.45,1.34,38.43,17.61,70.02
-0.05,0.44,1.39,30.92,11.36,68.9
0.0,0.38,1.41,16.74,2.94,67.08
0.13,0.25,1.35,-2.87,-6.69,64.6
0.22,0.07,1.27,-25.63,-15.68,62.85
0.22,0.07,1.27,-25.63,-15.68,62.85
0.24,-0.13,1.16,-49.15,-23.2,61.42
0.32,-0.41,1.02,-70.45,-29.23,58.13
0.46,-0.66,0.92,-86.82,-32.61,54.3
0.58,-0.86,0.77,-95.95,-31.75,51.89
0.63,-1.02,0.61,-96.39,-27.23,51.1
0.63,-1.02,0.61,-96.39,-27.23,51.1
0.63,-1.14,0.51,-87.85,-20.33,51.6
0.59,-1.18,0.46,-69.97,-11.28,53.72
0.47,-1.09,0.51,-44.04,-0.92,57.14
0.32,-0.88,0.64,-12.76,9.81,60.73
0.17,-0.6,0.81,20.14,19.99,63.38
0.17,-0.6,0.81,20.14,19.99,63.38
0.05,-0.35,0.97,50.81,28.94,64.29
-0.05,-0.14,1.11,77.03,36.32,63.36
-0.17,0.09,1.28,97.34,41.32,60.67
-0.21,0.23,1.45,109.31,42.84,55.39
-0.16,0.33,1.47,111.14,41.13,49.55
-0.16,0.33,1.47,111.14,41.13,49.55
-0.16,0.37,1.39,102.92,36.51,45.84
-0.15,0.29,1.32,86.92,29.26,43.16
-0.09,0.1,1.25,66.73,20.28,40.24
-0.04,-0.07,1.15,45.85,10.87,37.56
-0.01,-0.2,1.05,26.8,1.88,35.14
-0.01,-0.2,1.05,26.8,1.88,35.14
0.03,-0.31,0.98,10.99,-6.05,32.54
0.08,-0.38,0.93,-0.85,-12.36,30.14
0.13,-0.4,0.89,-8.6,-16.58,28.36
0.17,-0.41,0.87,-12.38,-18.66,27.18
0.19,-0.41,0.87,-12.44,-18.65,26.64
0.19,-0.41,0.87,-12.44,-18.65,26.64
0.17,-0.4,0.88,-9.24,-16.86,26.92
0.13,-0.35,0.89,-3.7,-13.68,27.69
0.08,-0.3,0.92,3.04,-9.57,28.39
0.05,-0.24,0.95,9.92,-5.31,28.91
0.05,-0.2,1.0,15.93,-1.55,29.27
0.05,-0.2,1.0,15.93,-1.55,29.27
0.04,-0.17,1.01,20.53,1.79,29.32
0.01,-0.16,1.0,23.93,4.73,29.21
-0.04,-0.17,0.98,26.54,6.91,28.82
-0.06,-0.17,0.96,28.86,8.12,27.92
-0.04,-0.14,0.96,31.09,8.4,26.69
-0.04,-0.14,0.96,31.09,8.4,26.69
-0.02,-0.11,0.99,32.94,7.87,25.33
0.02,-0.08,1.02,33.78,6.87,24.11
0.04,-0.06,1.03,33.13,5.74,23.17
0.04,-0.05,1.02,30.9,4.73,22.44
0.03,-0.07,1.0,27.49,3.93,21.64
0.03,-0.07,1.0,27.49,3.93,21.64
0.04,-0.1,0.98,23.47,3.3,20.64
0.06,-0.13,0.97,19.37,2.8,19.55
0.08,-0.16,0.96,15.61,2.51,18.6
0.08,-0.18,0.96,12.44,2.63,17.87
0.08,-0.18,0.97,9.94,3.3,17.27
0.08,-0.18,0.97,9.94,3.3,17.27
0.07,-0.19,0.97,8.13,4.57,16.65
0.05,-0.2,0.96,7.01,6.31,15.99
0.03,-0.2,0.95,6.81,8.3,15.29
0.02,-0.19,0.95,7.59,10.22,14.53
0.03,-0.17,0.97,9.16,11.95,13.73
0.03,-0.17,0.97,9.16,11.95,13.73
0.03,-0.14,0.97,11.21,13.54,13.01
0.02,-0.11,0.98,13.41,15.06,12.41
-0.0,-0.08,0.99,15.52,16.48,11.9
-0.03,-0.07,0.99,17.38,17.67,11.34
-0.03,-0.07,0.99,18.98,18.44,10.63
-0.04,-0.06,0.99,18.98,18.44,10.63
-0.04,-0.04,1.0,20.28,18.73,9.88
-0.03,-0.02,1.01,21.17,18.48,9.24
-0.02,-0.01,1.01,21.49,17.74,8.77
-0.02,-0.01,1.01,21.22,16.61,8.47
-0.02,-0.01,1.01,20.46,15.2,8.28
-0.0,-0.01,0.99,20.46,15.2,8.28
0.02,-0.02,0.98,19.46,13.74,8.22
