ax,ay,az,gx,gy,gz
-0.08,0.08,1.01,1.07,2.23,0.91
-0.09,0.09,1.01,1.21,1.99,0.95
-0.09,0.11,1.02,1.08,1.55,1.03
-0.08,0.11,1.02,0.66,0.96,1.2
-0.08,0.11,1.01,-0.04,0.35,1.41
-0.08,0.1,1.0,-0.89,-0.17,1.58
-0.08,0.1,1.0,-0.89,-0.17,1.58
-0.08,0.09,1.0,-1.69,-0.54,1.66
-0.07,0.09,0.99,-2.26,-0.87,1.68
-0.06,0.09,0.98,-2.55,-1.08,1.65
-0.06,0.09,0.98,-2.62,-1.15,1.62
-0.06,0.11,0.98,-2.5,-1.1,1.64
-0.06,0.11,0.98,-2.5,-1.1,1.64
-0.06,0.13,0.98,-2.33,-0.95,1.68
-0.06,0.14,0.98,-2.14,-0.74,1.75
-0.06,0.16,0.98,-2.05,-0.51,1.84
-0.06,0.17,0.98,-2.1,-0.3,1.96
-0.06,0.18,0.98,-2.34,-0.05,2.13
-0.06,0.18,0.98,-2.34,-0.05,2.13
-0.05,0.2,0.98,-2.79,0.26,2.33
-0.05,0.2,0.98,-3.43,0.66,2.57
-0.04,0.21,0.98,-4.21,1.1,2.97
-0.04,0.21,0.98,-5.03,1.61,3.53
-0.04,0.21,0.98,-5.79,2.18,4.29
-0.04,0.21,0.98,-5.79,2.18,4.29
-0.04,0.2,0.97,-6.36,2.79,5.19
-0.04,0.2,0.97,-6.62,3.37,6.18
-0.04,0.21,0.98,-6.65,3.9,7.22
-0.04,0.22,0.99,-6.47,4.34,8.34
-0.03,0.24,0.99,-6.25,4.74,9.5
-0.03,0.24,0.99,-6.25,4.74,9.5
-0.03,0.25,0.99,-6.15,5.08,10.69
-0.03,0.27,0.99,-6.25,5.4,11.9
-0.03,0.28,1.0,-6.54,5.71,13.09
-0.02,0.28,1.01,-6.98,6.04,14.27
-0.02,0.28,1.01,-7.54,6.41,15.42
0.0,0.29,1.01,-7.54,6.41,15.42
0.02,0.29,1.02,-8.12,6.97,16.58
0.03,0.28,1.03,-8.58,7.72,17.81
0.03,0.27,1.02,-8.89,8.62,19.16
0.01,0.25,1.02,-8.79,9.45,20.77
0.01,0.25,1.02,-8.02,9.97,22.61
-0.0,0.23,1.02,-8.02,9.97,22.61
-0.02,0.22,1.02,-6.48,10.01,24.68
-0.03,0.22,1.02,-4.25,9.57,26.82
-0.04,0.24,1.02,-1.52,8.7,28.88
-0.03,0.27,1.04,1.35,7.39,30.76
-0.03,0.27,1.04,1.35,7.39,30.76
-0.01,0.3,1.05,3.99,5.75,32.48
0.01,0.32,1.07,5.97,4.11,34.1
0.02,0.33,1.08,6.99,2.73,35.61
0.03,0.32,1.07,6.97,1.72,37.08
0.04,0.3,1.06,6.13,0.99,38.49
0.04,0.3,1.06,6.13,0.99,38.49
0.05,0.26,1.04,4.91,0.43,39.85
0.06,0.22,1.04,3.66,-0.01,41.18
0.07,0.19,1.03,2.5,-0.33,42.49
0.07,0.15,1.03,1.6,-0.5,43.8
0.07,0.13,1.03,1.06,-0.56,45.05
0.07,0.13,1.03,1.06,-0.56,45.05
0.06,0.11,1.03,0.92,-0.53,46.2
0.05,0.12,1.05,1.15,-0.49,47.23
0.06,0.13,1.06,1.54,-0.49,48.05
0.07,0.14,1.07,1.81,-0.47,48.68
0.07,0.14,1.08,1.63,-0.4,49.27
0.07,0.14,1.08,1.63,-0.4,49.27
0.08,0.13,1.1,0.86,-0.23,49.92
0.07,0.11,1.11,-0.42,0.06,50.64
0.05,0.08,1.11,-2.04,0.46,51.34
0.02,0.06,1.12,-3.78,0.99,51.82
-0.01,0.05,1.12,-5.41,1.5,51.9
-0.01,0.05,1.12,-5.41,1.5,51.9
-0.01,0.05,1.13,-6.76,1.82,51.45
0.0,0.07,1.14,-7.86,1.98,50.48
0.01,0.09,1.16,-9.04,2.04,49.26
0.01,0.1,1.17,-10.64,2.1,47.99
-0.01,0.09,1.16,-12.67,2.2,46.87
-0.01,0.09,1.16,-12.67,2.2,46.87
-0.03,0.08,1.16,-14.98,2.21,45.93
-0.06,0.06,1.15,-17.38,2.05,45.19
-0.08,0.04,1.15,-19.72,1.69,44.66
-0.1,0.01,1.13,-21.88,1.09,44.23
-0.12,-0.01,1.13,-23.7,0.21,43.85
-0.12,-0.01,1.13,-23.7,0.21,43.85
-0.13,-0.03,1.12,-25.06,-1.04,43.39
-0.13,-0.04,1.11,-25.96,-2.61,42.82
-0.11,-0.04,1.11,-26.5,-4.36,42.14
-0.08,-0.03,1.11,-26.82,-6.18,41.3
-0.05,-0.03,1.11,-27.21,-7.93,40.26
-0.05,-0.03,1.11,-27.21,-7.93,40.26
-0.04,-0.03,1.09,-27.88,-9.4,39.14
-0.05,-0.04,1.08,-28.72,-10.4,38.11
-0.06,-0.06,1.06,-29.68,-11.25,37.09
-0.07,-0.08,1.04,-30.63,-11.92,35.93
-0.09,-0.09,1.05,-31.32,-12.09,34.8
-0.09,-0.09,1.05,-31.32,-12.09,34.8
-0.12,-0.1,1.05,-31.78,-11.92,33.66
-0.14,-0.12,1.04,-32.1,-11.73,32.38
-0.14,-0.13,1.02,-32.19,-11.61,31.08
-0.13,-0.14,1.01,-31.94,-11.62,29.84
-0.11,-0.14,1.01,-31.27,-11.87,28.67
-0.11,-0.14,1.01,-31.27,-11.87,28.67
-0.1,-0.13,1.01,-30.33,-12.33,27.48
-0.09,-0.12,1.01,-29.37,-12.88,26.27
-0.09,-0.13,1.01,-28.54,-13.49,25.01
-0.1,-0.14,1.0,-27.9,-14.11,23.79
-0.1,-0.14,1.0,-27.43,-14.8,22.6
-0.1,-0.14,1.0,-27.43,-14.8,22.6
-0.12,-0.15,1.0,-27.04,-15.56,21.31
-0.13,-0.16,1.0,-26.73,-16.26,19.87
-0.14,-0.18,1.0,-26.5,-16.92,18.28
-0.14,-0.19,0.99,-26.27,-17.55,16.52
-0.12,-0.19,0.99,-25.95,-18.07,14.59
-0.12,-0.19,0.99,-25.95,-18.07,14.59
-0.11,-0.2,0.99,-25.44,-18.37,12.53
-0.1,-0.2,0.99,-24.76,-18.3,10.42
-0.09,-0.2,0.99,-24.0,-17.82,8.3
-0.09,-0.2,0.98,-23.15,-16.92,6.19
-0.1,-0.21,0.98,-22.22,-15.69,4.16
-0.1,-0.21,0.98,-22.22,-15.69,4.16
-0.1,-0.22,0.98,-21.17,-14.26,2.23
-0.1,-0.23,0.98,-19.95,-12.73,0.49
-0.11,-0.25,0.98,-18.51,-11.21,-1.03
-0.11,-0.25,0.98,-16.83,-9.86,-2.35
-0.1,-0.26,0.98,-14.92,-8.89,-3.5
-0.1,-0.26,0.98,-14.92,-8.89,-3.5
-0.09,-0.26,0.98,-12.77,-8.26,-4.63
-0.08,-0.25,0.97,-10.41,-8.03,-5.85
-0.06,-0.24,0.97,-7.91,-8.22,-7.23
-0.04,-0.22,0.97,-5.45,-8.79,-8.85
-0.02,-0.21,0.97,-3.21,-9.59,-10.61
-0.02,-0.21,0.97,-3.21,-9.59,-10.61
0.0,-0.21,0.99,-1.41,-10.37,-12.36
-0.0,-0.21,1.0,-0.08,-10.75,-13.99
-0.02,-0.22,1.0,0.84,-10.66,-15.56
-0.04,-0.23,1.0,1.47,-10.26,-17.15
-0.05,-0.24,1.0,2.01,-9.6,-18.85
-0.05,-0.24,1.0,2.01,-9.6,-18.85
-0.06,-0.23,1.0,2.66,-8.73,-20.75
-0.06,-0.22,1.01,3.49,-7.76,-22.93
-0.04,-0.2,1.0,4.33,-6.87,-25.3
-0.02,-0.19,1.01,5.08,-6.09,-27.67
-0.0,-0.18,1.01,5.7,-5.37,-29.88
-0.0,-0.18,1.01,5.7,-5.37,-29.88
0.0,-0.18,1.01,6.05,-4.74,-31.72
-0.01,-0.18,1.0,6.2,-4.24,-33.19
-0.03,-0.18,0.99,6.3,-3.95,-34.42
-0.04,-0.18,0.98,6.47,-4.0,-35.59
-0.04,-0.18,0.97,6.79,-4.36,-36.8
-0.04,-0.18,0.97,6.79,-4.36,-36.8
-0.02,-0.16,0.98,7.26,-4.9,-38.14
-0.01,-0.15,1.0,7.78,-5.36,-39.67
0.0,-0.15,1.0,8.12,-5.68,-41.32
0.02,-0.15,1.0,8.16,-5.71,-42.98
0.03,-0.15,0.99,8.04,-5.3,-44.61
0.03,-0.15,0.99,8.04,-5.3,-44.61
0.04,-0.16,0.98,7.94,-4.52,-46.16
0.03,-0.17,0.97,7.89,-3.43,-47.62
0.01,-0.17,0.97,7.93,-2.08,-48.95
-0.02,-0.16,0.96,8.13,-0.55,-50.27
-0.05,-0.15,0.96,8.42,0.92,-51.69
-0.05,-0.15,0.96,8.42,0.92,-51.69
-0.07,-0.14,0.96,8.7,2.24,-53.19
-0.1,-0.12,0.98,8.94,3.43,-54.84
-0.11,-0.1,0.99,9.05,4.51,-56.62
-0.11,-0.09,0.99,8.77,5.41,-58.42
-0.12,-0.09,0.98,8.11,6.22,-60.08
-0.12,-0.09,0.98,8.11,6.22,-60.08
-0.12,-0.09,0.97,7.24,6.88,-61.56
-0.12,-0.09,0.97,6.29,7.36,-62.82
-0.12,-0.1,0.98,5.35,7.74,-63.91
-0.13,-0.11,0.97,4.5,8.22,-64.81
-0.14,-0.12,0.97,3.85,8.82,-65.52
-0.14,-0.12,0.97,3.85,8.82,-65.52
-0.15,-0.13,0.96,3.53,9.35,-66.09
-0.16,-0.14,0.95,3.56,9.77,-66.47
-0.17,-0.15,0.95,4.01,10.17,-66.68
-0.18,-0.14,0.95,4.92,10.51,-66.8
-0.18,-0.14,0.95,6.19,10.79,-66.87
-0.18,-0.14,0.95,6.19,10.79,-66.87
-0.19,-0.13,0.95,7.6,10.93,-66.9
-0.2,-0.11,0.95,9.09,11.0,-66.91
-0.21,-0.1,0.95,10.64,11.06,-66.97
-0.21,-0.08,0.95,12.11,11.12,-67.07
-0.21,-0.06,0.95,13.35,11.17,-67.19
-0.21,-0.06,0.95,13.35,11.17,-67.19
-0.2,-0.06,0.95,14.3,11.25,-67.2
-0.19,-0.06,0.96,14.95,11.41,-67.06
-0.19,-0.06,0.96,15.32,11.73,-66.87
-0.2,-0.07,0.97,15.48,12.3,-66.53
-0.23,-0.08,0.97,15.57,13.18,-66.11
-0.23,-0.08,0.97,15.57,13.18,-66.11
-0.25,-0.08,0.96,15.7,14.2,-65.68
-0.28,-0.07,0.95,15.93,15.07,-65.32
-0.29,-0.05,0.95,16.3,15.35,-65.07
-0.27,-0.04,0.96,16.7,14.95,-64.87
-0.26,-0.01,0.96,16.97,13.92,-64.65
-0.26,-0.01,0.96,16.97,13.92,-64.65
-0.23,0.01,0.96,16.98,12.47,-64.41
-0.21,0.01,0.96,16.66,10.74,-64.07
-0.18,0.01,0.96,15.92,8.94,-63.57
-0.16,-0.0,0.97,14.93,7.37,-62.9
-0.16,-0.02,0.97,13.8,6.31,-62.15
-0.16,-0.02,0.97,13.8,6.31,-62.15
-0.17,-0.04,0.97,12.77,5.86,-61.44
-0.19,-0.06,0.97,12.02,5.87,-60.83
-0.2,-0.07,0.97,11.68,6.2,-60.32
-0.21,-0.08,0.96,11.85,6.68,-59.95
-0.22,-0.07,0.95,12.48,7.12,-59.73
-0.22,-0.07,0.95,12.48,7.12,-59.73
-0.21,-0.05,0.94,13.54,7.29,-59.67
-0.2,-0.01,0.94,14.83,7.12,-59.73
-0.19,0.02,0.94,16.14,6.54,-59.85
-0.17,0.04,0.95,17.14,5.69,-59.95
-0.16,0.06,0.96,17.71,4.76,-59.92
-0.16,0.06,0.96,17.71,4.76,-59.92
-0.16,0.07,0.96,17.75,3.85,-59.69
-0.16,0.06,0.96,17.46,3.01,-59.33
-0.16,0.05,0.96,16.96,2.24,-58.74
-0.17,0.04,0.95,16.42,1.56,-58.01
-0.18,0.03,0.95,16.08,0.93,-57.23
-0.18,0.03,0.95,16.08,0.93,-57.23
-0.19,0.04,0.94,16.09,0.27,-56.47
-0.2,0.05,0.95,16.41,-0.5,-55.82
-0.2,0.07,0.95,16.79,-1.42,-55.23
-0.19,0.1,0.95,16.94,-2.42,-54.72
-0.17,0.12,0.95,16.74,-3.47,-54.28
-0.17,0.12,0.95,16.74,-3.47,-54.28
-0.15,0.13,0.96,16.04,-4.47,-53.86
-0.13,0.14,0.96,14.83,-5.24,-53.36
-0.11,0.13,0.97,13.15,-5.62,-52.74
-0.12,0.11,0.97,11.08,-5.51,-51.91
-0.14,0.08,0.97,8.84,-5.05,-51.02
-0.14,0.08,0.97,8.84,-5.05,-51.02
-0.16,0.05,0.96,6.81,-4.49,-50.16
-0.18,0.04,0.96,5.29,-4.05,-49.32
-0.2,0.03,0.96,4.28,-3.9,-48.55
-0.2,0.04,0.96,3.59,-4.19,-47.91
-0.19,0.06,0.96,3.08,-4.94,-47.48
-0.19,0.06,0.96,3.08,-4.94,-47.48
-0.18,0.07,0.96,2.64,-6.03,-47.22
-0.16,0.09,0.97,2.01,-7.4,-47.04
-0.14,0.1,0.96,0.94,-8.84,-46.82
-0.13,0.1,0.96,-0.56,-10.04,-46.56
-0.13,0.09,0.95,-2.4,-10.89,-46.3
-0.13,0.09,0.95,-2.4,-10.89,-46.3
-0.12,0.07,0.96,-4.42,-11.37,-46.05
-0.11,0.04,0.96,-6.37,-11.45,-45.69
-0.11,0.01,0.95,-7.97,-11.08,-45.24
-0.14,0.0,0.94,-9.05,-10.41,-44.82
-0.16,0.01,0.92,-9.44,-9.75,-44.58
-0.16,0.01,0.92,-9.44,-9.75,-44.58
-0.16,0.03,0.9,-9.11,-9.47,-44.53
-0.14,0.07,0.92,-8.2,-9.58,-44.68
-0.13,0.11,0.94,-7.13,-9.9,-45.01
-0.13,0.15,0.94,-6.45,-10.22,-45.28
-0.14,0.18,0.94,-6.5,-10.46,-45.39
-0.14,0.18,0.94,-6.5,-10.46,-45.39
-0.15,0.19,0.95,-7.25,-10.59,-45.32
-0.15,0.19,0.96,-8.57,-10.55,-45.02
-0.16,0.16,0.96,-10.37,-10.28,-44.5
-0.17,0.13,0.96,-12.34,-9.68,-43.79
-0.19,0.09,0.96,-14.12,-8.83,-42.96
-0.19,0.09,0.96,-14.12,-8.83,-42.96
-0.21,0.07,0.95,-15.33,-7.94,-42.04
-0.21,0.06,0.93,-15.67,-7.28,-41.19
-0.2,0.07,0.93,-15.1,-7.03,-40.45
-0.16,0.1,0.93,-13.92,-7.28,-39.9
-0.13,0.12,0.94,-12.47,-7.72,-39.39
-0.13,0.12,0.94,-12.47,-7.72,-39.39
-0.11,0.15,0.95,-11.06,-8.14,-38.75
-0.11,0.16,0.96,-9.99,-8.52,-37.91
-0.1,0.16,0.98,-9.32,-8.74,-36.81
-0.09,0.14,1.01,-9.02,-8.57,-35.56
-0.1,0.11,1.02,-9.05,-7.96,-34.27
-0.1,0.11,1.02,-9.05,-7.96,-34.27
-0.13,0.07,1.02,-9.2,-6.97,-33.03
-0.17,0.04,1.0,-9.16,-5.88,-31.93
-0.21,0.03,0.99,-8.65,-5.02,-31.05
-0.23,0.02,0.97,-7.57,-4.61,-30.44
-0.22,0.04,0.95,-5.94,-4.85,-30.08
-0.22,0.04,0.95,-5.94,-4.85,-30.08
-0.18,0.08,0.95,-3.78,-5.68,-30.07
-0.15,0.13,0.96,-1.33,-6.8,-30.36
-0.13,0.18,0.98,0.86,-7.89,-30.78
-0.11,0.23,0.98,2.22,-8.91,-31.15
-0.08,0.26,0.99,2.61,-9.83,-31.35
-0.08,0.26,0.99,2.61,-9.83,-31.35
-0.06,0.26,1.01,1.98,-10.53,-31.29
-0.06,0.25,1.04,0.2,-10.84,-30.99
-0.07,0.23,1.05,-2.64,-10.56,-30.55
-0.1,0.19,1.04,-6.06,-9.63,-29.99
-0.11,0.16,1.02,-9.56,-8.06,-29.41
-0.11,0.16,1.02,-9.56,-8.06,-29.41
-0.12,0.13,1.0,-12.69,-5.66,-28.86
-0.12,0.11,0.98,-15.27,-3.12,-28.49
-0.1,0.09,0.95,-17.17,-0.88,-28.52
-0.09,0.1,0.92,-18.13,1.28,-28.73
-0.1,0.12,0.9,-18.13,3.01,-28.74
-0.1,0.12,0.9,-18.13,3.01,-28.74
-0.1,0.15,0.89,-17.21,3.88,-28.48
-0.07,0.18,0.92,-15.57,3.84,-27.98
-0.04,0.21,0.95,-13.59,3.3,-27.31
-0.02,0.23,0.98,-11.69,2.84,-26.39
-0.02,0.23,1.01,-10.19,2.79,-25.22
-0.02,0.23,1.01,-10.19,2.79,-25.22
-0.05,0.24,1.02,-9.21,3.21,-23.9
-0.1,0.23,1.02,-8.59,3.82,-22.44
-0.15,0.22,1.02,-8.22,4.21,-20.89
-0.18,0.21,1.01,-7.93,4.1,-19.26
-0.19,0.19,1.0,-7.54,3.36,-17.58
-0.19,0.19,1.0,-7.54,3.36,-17.58
-0.19,0.18,0.99,-6.99,2.01,-15.81
-0.17,0.18,0.98,-6.3,0.12,-13.92
-0.13,0.17,0.98,-5.35,-2.17,-11.99
-0.1,0.17,0.99,-4.16,-4.37,-10.1
-0.07,0.17,1.0,-3.02,-6.09,-8.31
-0.07,0.17,1.0,-3.02,-6.09,-8.31
-0.06,0.17,1.0,-2.07,-7.19,-6.64
-0.04,0.17,1.01,-1.2,-7.82,-5.19
-0.04,0.18,1.02,-0.39,-8.04,-4.05
-0.04,0.19,1.04,0.18,-7.83,-3.13
-0.07,0.2,1.05,0.21,-7.32,-2.32
-0.07,0.2,1.05,0.21,-7.32,-2.32
-0.09,0.2,1.03,-0.38,-6.77,-1.54
-0.11,0.19,1.02,-1.38,-6.51,-0.68
-0.13,0.18,1.0,-2.56,-6.71,0.3
-0.14,0.15,0.98,-3.77,-7.51,1.48
-0.14,0.12,0.95,-4.82,-8.94,2.82
-0.14,0.12,0.95,-4.82,-8.94,2.82
-0.12,0.1,0.93,-5.55,-10.88,4.24
-0.08,0.09,0.91,-5.73,-13.17,5.64
-0.03,0.09,0.91,-5.26,-15.52,6.92
0.03,0.1,0.92,-4.27,-17.45,7.96
0.07,0.11,0.94,-3.07,-18.56,8.8
0.07,0.11,0.94,-3.07,-18.56,8.8
0.09,0.12,0.95,-1.98,-18.71,9.48
0.08,0.14,0.95,-1.11,-17.76,10.07
0.06,0.15,0.97,-0.46,-15.9,10.58
0.03,0.16,0.99,-0.12,-13.56,11.02
0.03,0.15,0.99,-0.15,-10.89,11.43
0.03,0.15,0.99,-0.15,-10.89,11.43
0.02,0.12,0.99,-0.55,-8.02,11.97
0.01,0.09,0.98,-1.11,-5.16,12.69
-0.01,0.06,0.97,-1.56,-2.65,13.57
-0.03,0.03,0.96,-1.59,-0.76,14.51
-0.05,0.03,0.94,-0.98,0.33,15.34
-0.05,0.03,0.94,-0.98,0.33,15.34
-0.04,0.05,0.95,0.42,0.5,15.94
-0.01,0.08,0.96,2.39,-0.15,16.22
0.02,0.12,0.99,4.39,-1.28,16.26
0.05,0.16,1.02,6.01,-2.41,16.1
0.07,0.19,1.04,6.93,-3.29,15.85
0.07,0.19,1.04,6.93,-3.29,15.85
0.08,0.2,1.04,7.02,-3.81,15.62
0.09,0.21,1.04,6.37,-3.99,15.45
0.09,0.2,1.04,5.27,-3.81,15.44
0.08,0.18,1.04,4.03,-3.3,15.66
0.08,0.16,1.03,2.86,-2.59,16.11
0.08,0.16,1.03,2.86,-2.59,16.11
0.09,0.13,1.01,2.05,-1.78,16.76
0.08,0.11,1.0,1.92,-0.85,17.64
0.06,0.1,1.0,2.52,0.15,18.62
0.04,0.1,0.98,3.78,1.04,19.63
0.03,0.1,0.95,5.64,1.58,20.62
0.03,0.1,0.95,5.64,1.58,20.62
0.02,0.13,0.95,8.14,1.86,21.63
0.01,0.17,0.96,11.0,2.08,22.51
0.02,0.2,0.96,13.72,1.95,23.24
0.06,0.21,0.97,16.06,1.66,24.02
0.09,0.21,1.01,17.97,1.69,25.08
0.09,0.21,1.01,17.97,1.69,25.08
0.1,0.19,1.03,19.24,2.21,26.52
0.11,0.16,1.02,20.02,3.03,28.23
0.12,0.13,1.01,20.85,4.03,30.16
0.12,0.11,1.02,22.2,5.07,32.13
0.12,0.11,1.02,24.14,5.94,33.94
0.12,0.1,1.03,24.14,5.94,33.94
0.12,0.12,1.03,26.44,6.61,35.42
0.12,0.16,1.03,28.76,7.23,36.47
0.11,0.2,1.04,30.78,7.94,36.97
0.11,0.24,1.05,32.13,8.72,36.79
0.11,0.24,1.05,32.52,9.38,36.08
0.12,0.29,1.04,32.52,9.38,36.08
0.13,0.32,1.03,31.84,9.91,35.02
0.13,0.36,1.03,30.1,10.33,33.9
0.13,0.37,1.03,27.28,10.58,32.87
0.14,0.36,1.03,23.42,10.53,32.16
0.14,0.36,1.03,23.42,10.53,32.16
0.16,0.32,1.04,18.9,10.41,32.01
0.16,0.26,1.05,14.25,10.73,32.6
0.14,0.2,1.04,10.11,11.48,33.81
0.12,0.15,1.01,6.99,12.35,35.31
0.11,0.12,0.99,5.41,13.09,36.92
0.11,0.12,0.99,5.41,13.09,36.92
0.11,0.11,1.0,5.61,13.68,38.47
0.09,0.14,1.02,7.2,14.21,39.78
0.09,0.19,1.03,9.47,14.53,40.79
0.1,0.24,1.03,11.74,14.69,41.59
0.1,0.28,1.03,13.52,14.7,42.25
0.1,0.28,1.03,13.52,14.7,42.25
0.1,0.31,1.04,14.44,14.53,42.9
0.09,0.33,1.04,14.3,14.18,43.65
0.08,0.33,1.04,13.05,13.71,44.55
0.07,0.32,1.04,10.8,13.22,45.57
0.06,0.28,1.04,7.84,12.77,46.71
0.06,0.28,1.04,7.84,12.77,46.71
0.04,0.24,1.05,4.57,12.44,47.99
0.03,0.19,1.04,1.49,12.25,49.32
0.03,0.14,1.04,-1.1,12.08,50.6
0.04,0.1,1.04,-2.91,11.91,51.74
0.05,0.07,1.03,-3.87,11.82,52.85
0.05,0.07,1.03,-3.87,11.82,52.85
0.05,0.06,1.03,-3.98,11.91,53.84
0.05,0.07,1.02,-3.42,12.06,54.63
0.05,0.08,1.02,-2.49,12.12,55.27
0.06,0.1,1.01,-1.43,12.12,55.78
0.05,0.12,0.99,-0.53,12.06,56.17
0.05,0.12,0.99,-0.53,12.06,56.17
0.05,0.13,0.98,-0.01,11.88,56.4
0.05,0.12,0.97,0.09,11.59,56.43
0.06,0.1,0.99,-0.26,11.31,56.45
0.06,0.07,1.0,-0.96,11.28,56.5
0.06,0.03,0.99,-1.97,11.62,56.59
0.06,0.03,0.99,-1.97,11.62,56.59
0.05,0.0,0.99,-3.0,12.37,56.58
0.04,-0.03,0.97,-3.78,13.34,56.36
0.02,-0.04,0.97,-4.13,14.37,55.85
-0.0,-0.03,0.97,-4.02,15.21,55.07
-0.02,-0.01,0.98,-3.68,15.82,54.02
-0.02,-0.01,0.98,-3.68,15.82,54.02
-0.03,0.01,0.99,-3.37,16.3,52.69
-0.04,0.03,0.99,-3.34,16.63,51.15
-0.04,0.03,0.99,-3.71,16.82,49.45
-0.03,0.01,1.0,-4.42,16.94,47.79
-0.03,-0.01,1.01,-5.38,17.17,46.32
-0.03,-0.01,1.01,-5.38,17.17,46.32
-0.03,-0.03,1.01,-6.41,17.62,45.07
-0.04,-0.06,1.02,-7.3,18.32,44.0
-0.06,-0.09,1.02,-7.86,19.15,43.1
-0.09,-0.1,1.02,-7.83,19.96,42.3
-0.11,-0.11,1.02,-7.12,20.52,41.42
-0.11,-0.11,1.02,-7.12,20.52,41.42
-0.12,-0.1,1.03,-5.75,20.74,40.41
-0.13,-0.08,1.05,-3.97,20.57,39.24
-0.13,-0.05,1.06,-2.17,20.05,37.91
-0.13,-0.03,1.07,-0.68,19.33,36.45
-0.14,-0.01,1.08,0.31,18.51,34.93
-0.14,-0.01,1.08,0.31,18.51,34.93
-0.15,-0.0,1.09,0.73,17.68,33.32
-0.15,0.0,1.08,0.63,16.83,31.69
-0.16,0.01,1.07,0.2,15.9,30.04
-0.16,0.02,1.07,-0.4,14.83,28.43
-0.14,0.02,1.08,-1.17,13.7,26.89
-0.14,0.02,1.08,-1.17,13.7,26.89
-0.13,0.03,1.1,-2.13,12.76,25.56
-0.14,0.03,1.12,-3.39,12.21,24.49
-0.14,0.03,1.13,-5.01,12.05,23.6
-0.14,0.0,1.13,-6.77,12.17,22.92
-0.14,-0.03,1.13,-8.5,12.48,22.5
-0.14,-0.03,1.13,-8.5,12.48,22.5
-0.15,-0.07,1.13,-9.86,12.8,22.24
-0.17,-0.09,1.11,-10.54,12.95,21.93
-0.18,-0.1,1.09,-10.31,12.72,21.47
-0.18,-0.1,1.09,-9.23,11.99,20.8
-0.18,-0.07,1.09,-7.56,10.82,19.84
-0.18,-0.07,1.09,-7.56,10.82,19.84
-0.19,-0.03,1.1,-5.68,9.32,18.64
-0.18,0.0,1.11,-3.97,7.62,17.18
-0.17,0.03,1.11,-2.8,5.81,15.6
-0.17,0.05,1.1,-2.29,4.0,13.94
-0.17,0.06,1.09,-2.4,2.19,12.33
-0.17,0.06,1.09,-2.4,2.19,12.33
-0.17,0.07,1.08,-2.97,0.41,10.8
-0.16,0.07,1.07,-3.76,-1.39,9.24
-0.14,0.06,1.05,-4.63,-3.27,7.73
-0.13,0.06,1.04,-5.49,-5.19,6.45
-0.11,0.05,1.02,-6.29,-7.07,5.43
-0.11,0.05,1.02,-6.29,-7.07,5.43
-0.09,0.03,1.01,-6.87,-8.78,4.69
-0.08,0.02,1.0,-7.05,-10.17,4.16
-0.07,0.01,0.98,-6.76,-11.18,3.79
-0.05,0.01,0.97,-5.96,-11.75,3.48
-0.04,0.01,0.97,-4.7,-11.92,3.26
-0.04,0.01,0.97,-4.7,-11.92,3.26
-0.04,0.03,0.97,-3.15,-11.7,3.07
-0.05,0.05,0.97,-1.49,-11.15,2.91
-0.06,0.07,0.97,0.05,-10.45,2.71
-0.07,0.09,0.98,1.34,-9.8,2.45
-0.07,0.11,0.98,2.23,-9.23,2.16
-0.07,0.11,0.98,2.23,-9.23,2.16
-0.07,0.12,0.99,2.59,-8.73,1.84
-0.08,0.13,0.99,2.34,-8.24,1.49
-0.08,0.13,0.99,1.61,-7.74,1.15
-0.09,0.12,0.99,0.57,-7.31,0.78
-0.08,0.11,0.98,-0.54,-6.93,0.47
-0.08,0.11,0.98,-0.54,-6.93,0.47
-0.08,0.09,0.98,-1.56,-6.54,0.24
-0.07,0.08,0.97,-2.41,-6.14,0.12
-0.07,0.07,0.96,-2.94,-5.66,0.11
