ax,ay,az,gx,gy,gz
-0.34,0.25,0.96,-0.47,1.37,1.54
-0.34,0.25,0.96,-0.47,1.37,1.54
-0.35,0.25,0.96,-0.41,1.41,1.45
-0.35,0.25,0.96,-0.22,1.35,1.44
-0.34,0.25,0.96,0.13,1.14,1.49
-0.34,0.25,0.96,0.57,0.79,1.56
-0.34,0.25,0.96,1.03,0.34,1.69
-0.34,0.25,0.96,1.03,0.34,1.69
-0.33,0.25,0.95,1.46,-0.2,1.79
-0.32,0.25,0.95,1.78,-0.77,1.81
-0.32,0.25,0.95,2.03,-1.32,1.78
-0.31,0.25,0.94,2.22,-1.76,1.6
-0.31,0.25,0.94,2.33,-2.11,1.36
-0.31,0.25,0.94,2.33,-2.11,1.36
-0.3,0.25,0.94,2.35,-2.31,1.05
-0.3,0.25,0.93,2.32,-2.39,0.71
-0.29,0.25,0.93,2.25,-2.31,0.42
-0.29,0.25,0.93,2.22,-2.1,0.19
-0.3,0.25,0.93,2.24,-1.81,0.01
-0.3,0.25,0.93,2.24,-1.81,0.01
-0.3,0.25,0.93,2.4,-1.46,-0.16
-0.31,0.26,0.94,2.69,-1.12,-0.33
-0.31,0.27,0.94,3.01,-0.85,-0.53
-0.31,0.28,0.95,3.23,-0.62,-0.73
-0.31,0.29,0.95,3.28,-0.42,-0.93
-0.31,0.29,0.95,3.28,-0.42,-0.93
-0.31,0.3,0.95,3.06,-0.28,-1.16
-0.32,0.3,0.95,2.58,-0.18,-1.38
-0.32,0.29,0.94,1.95,-0.11,-1.59
-0.32,0.28,0.94,1.32,-0.11,-1.8
-0.31,0.28,0.94,0.84,-0.14,-1.99
-0.31,0.28,0.94,0.84,-0.14,-1.99
-0.31,0.28,0.94,0.51,-0.15,-2.1
-0.31,0.28,0.94,0.28,-0.21,-2.09
-0.31,0.27,0.94,0.14,-0.26,-1.99
-0.31,0.28,0.94,0.16,-0.34,-1.77
-0.31,0.28,0.95,0.33,-0.46,-1.49
-0.31,0.28,0.95,0.33,-0.46,-1.49
-0.31,0.28,0.95,0.49,-0.56,-1.14
-0.31,0.28,0.95,0.67,-0.65,-0.77
-0.31,0.27,0.95,0.88,-0.71,-0.42
-0.32,0.28,0.95,1.16,-0.73,-0.06
-0.32,0.28,0.95,1.42,-0.76,0.23
-0.32,0.28,0.95,1.42,-0.76,0.23
-0.32,0.28,0.95,1.64,-0.77,0.44
-0.32,0.28,0.95,1.78,-0.78,0.55
-0.32,0.28,0.95,1.83,-0.76,0.61
-0.32,0.28,0.95,1.83,-0.76,0.58
-0.31,0.28,0.94,1.73,-0.74,0.46
-0.31,0.28,0.94,1.73,-0.74,0.46
-0.31,0.28,0.94,1.53,-0.68,0.24
-0.31,0.29,0.94,1.21,-0.57,-0.0
-0.31,0.29,0.94,0.83,-0.37,-0.21
-0.32,0.3,0.94,0.39,-0.14,-0.38
-0.32,0.3,0.93,-0.03,0.08,-0.57
-0.32,0.3,0.93,-0.03,0.08,-0.57
-0.32,0.3,0.94,-0.45,0.26,-0.69
-0.31,0.3,0.94,-0.86,0.4,-0.69
-0.32,0.3,0.94,-1.28,0.54,-0.57
-0.32,0.3,0.93,-1.68,0.7,-0.41
-0.33,0.29,0.93,-2.01,0.9,-0.23
-0.33,0.29,0.93,-2.01,0.9,-0.23
-0.32,0.29,0.93,-2.19,1.14,-0.06
-0.33,0.3,0.93,-2.21,1.46,0.14
-0.33,0.31,0.94,-2.2,1.88,0.33
-0.34,0.32,0.94,-2.3,2.38,0.45
-0.34,0.33,0.94,-2.62,2.96,0.47
-0.34,0.33,0.94,-2.62,2.96,0.47
-0.34,0.34,0.94,-3.15,3.65,0.49
-0.34,0.35,0.95,-3.89,4.53,0.49
-0.34,0.36,0.95,-4.95,5.69,0.41
-0.35,0.37,0.96,-6.37,7.24,0.26
-0.37,0.39,0.95,-8.32,9.22,-0.03
-0.37,0.39,0.95,-8.32,9.22,-0.03
-0.39,0.38,0.94,-10.79,11.39,-0.51
-0.4,0.37,0.93,-13.4,13.73,-1.23
-0.43,0.36,0.92,-15.97,16.22,-2.27
-0.45,0.37,0.91,-18.33,18.54,-3.78
-0.45,0.38,0.91,-20.24,20.25,-5.62
-0.45,0.38,0.91,-20.24,20.25,-5.62
-0.43,0.4,0.91,-21.7,21.35,-7.21
-0.42,0.42,0.93,-22.98,21.73,-8.3
-0.4,0.44,0.93,-24.17,21.33,-8.84
-0.38,0.45,0.93,-25.33,20.2,-8.88
-0.37,0.45,0.92,-26.35,18.43,-8.42
-0.37,0.45,0.92,-26.35,18.43,-8.42
-0.36,0.46,0.91,-27.0,16.16,-7.59
-0.35,0.47,0.89,-27.14,13.64,-6.57
-0.33,0.5,0.89,-26.77,11.06,-5.37
-0.29,0.54,0.87,-26.26,8.64,-4.08
-0.26,0.58,0.87,-25.71,6.71,-2.6
-0.26,0.58,0.87,-25.71,6.71,-2.6
-0.23,0.61,0.85,-25.35,5.39,-0.93
-0.18,0.64,0.83,-25.2,4.62,0.85
-0.14,0.68,0.81,-25.11,4.35,2.78
-0.1,0.7,0.81,-24.98,4.48,4.98
-0.08,0.72,0.81,-24.84,4.93,7.47
-0.08,0.72,0.81,-24.84,4.93,7.47
-0.08,0.74,0.83,-24.78,5.68,10.43
-0.09,0.73,0.84,-24.86,6.53,13.84
-0.08,0.71,0.86,-24.91,7.41,17.68
-0.09,0.68,0.87,-24.76,8.41,22.05
-0.09,0.66,0.88,-24.09,9.7,26.7
-0.09,0.66,0.88,-24.09,9.7,26.7
-0.08,0.65,0.89,-22.71,11.12,31.56
-0.07,0.65,0.92,-20.51,12.84,36.69
-0.06,0.65,0.94,-17.63,14.57,42.01
-0.03,0.65,0.97,-14.16,16.33,47.39
-0.03,0.66,1.0,-10.16,18.01,53.17
-0.03,0.66,1.0,-10.16,18.01,53.17
-0.05,0.67,1.03,-5.8,19.44,59.37
-0.09,0.68,1.06,-1.31,20.46,65.59
-0.12,0.67,1.1,3.0,21.0,71.45
-0.15,0.67,1.13,6.63,21.16,77.02
-0.15,0.67,1.13,9.48,20.77,82.27
-0.19,0.66,1.16,9.48,20.77,82.27
-0.23,0.66,1.19,11.39,19.87,86.81
-0.28,0.66,1.21,12.18,18.41,90.47
-0.33,0.67,1.24,11.72,16.59,93.2
-0.37,0.67,1.27,9.9,14.44,94.95
-0.37,0.67,1.27,6.63,12.0,95.85
-0.38,0.67,1.29,6.63,12.0,95.85
-0.37,0.65,1.3,2.09,9.37,96.19
-0.36,0.59,1.3,-3.35,6.52,96.48
-0.33,0.51,1.27,-9.22,3.25,97.01
-0.33,0.41,1.25,-14.77,-0.44,97.96
-0.33,0.41,1.25,-14.77,-0.44,97.96
-0.32,0.32,1.23,-19.37,-4.36,99.22
-0.28,0.25,1.22,-22.72,-8.29,100.34
-0.22,0.2,1.21,-24.65,-12.0,101.06
-0.2,0.24,1.27,-25.78,-15.15,101.2
-0.1,0.18,1.28,-27.65,-18.02,100.09
-0.1,0.18,1.28,-27.65,-18.02,100.09
-0.1,0.22,1.33,-30.45,-20.15,99.49
-0.07,0.03,1.19,-34.69,-22.29,98.42
-0.02,-0.18,1.09,-36.38,-23.91,97.8
-0.02,-0.25,1.1,-34.98,-25.25,97.93
-0.04,-0.33,1.1,-29.51,-26.76,98.1
-0.04,-0.33,1.1,-29.51,-26.76,98.1
-0.07,-0.26,1.16,-21.27,-28.44,97.55
-0.03,-0.18,1.19,-12.34,-30.62,95.24
0.06,-0.15,1.22,-3.98,-32.52,91.93
0.04,-0.14,1.23,2.84,-33.98,89.28
0.0,-0.19,1.22,8.37,-35.41,85.81
0.0,-0.19,1.22,8.37,-35.41,85.81
-0.03,-0.21,1.21,13.08,-37.12,81.78
-0.07,-0.21,1.21,17.09,-39.16,77.49
-0.09,-0.21,1.24,20.15,-41.64,72.16
-0.1,-0.23,1.24,21.8,-44.61,65.69
-0.11,-0.25,1.21,22.36,-47.96,58.49
-0.11,-0.25,1.21,22.36,-47.96,58.49
-0.12,-0.27,1.21,22.31,-51.61,51.1
-0.16,-0.27,1.2,21.74,-55.52,44.13
-0.2,-0.25,1.21,20.5,-59.62,36.92
-0.21,-0.27,1.21,18.25,-64.03,28.58
-0.2,-0.28,1.2,15.45,-67.96,19.45
-0.2,-0.28,1.2,15.45,-67.96,19.45
-0.19,-0.28,1.2,11.96,-71.04,10.34
-0.19,-0.28,1.18,7.96,-73.33,1.98
-0.19,-0.25,1.17,4.09,-74.71,-6.43
-0.16,-0.27,1.19,0.46,-75.47,-16.28
-0.13,-0.32,1.23,-2.64,-75.29,-27.23
-0.13,-0.32,1.23,-2.64,-75.29,-27.23
-0.19,-0.36,1.22,-5.5,-73.72,-36.4
-0.34,-0.34,1.2,-7.71,-71.33,-43.35
-0.37,-0.37,1.2,-8.77,-69.21,-51.29
-0.38,-0.36,1.23,-8.74,-67.45,-59.24
-0.37,-0.35,1.25,-8.59,-66.35,-66.08
-0.37,-0.35,1.25,-8.59,-66.35,-66.08
-0.44,-0.34,1.24,-7.83,-65.51,-70.42
-0.5,-0.32,1.26,-6.09,-65.22,-74.31
-0.51,-0.28,1.3,-4.15,-66.02,-79.53
-0.49,-0.25,1.33,-3.09,-67.63,-85.62
-0.47,-0.27,1.34,-3.06,-69.21,-91.11
-0.47,-0.27,1.34,-3.06,-69.21,-91.11
-0.47,-0.28,1.35,-3.39,-70.02,-95.59
-0.47,-0.27,1.38,-4.09,-69.98,-99.79
-0.47,-0.28,1.38,-5.57,-69.19,-104.32
-0.48,-0.31,1.35,-7.95,-67.72,-108.65
-0.51,-0.37,1.28,-10.62,-65.92,-112.47
-0.51,-0.37,1.28,-10.62,-65.92,-112.47
-0.54,-0.41,1.22,-12.35,-64.18,-116.19
-0.55,-0.43,1.18,-12.44,-62.73,-120.05
-0.55,-0.43,1.15,-11.31,-61.74,-123.24
-0.57,-0.42,1.09,-9.26,-61.1,-124.98
-0.61,-0.39,1.05,-5.71,-60.87,-125.99
-0.61,-0.39,1.05,-5.71,-60.87,-125.99
-0.58,-0.37,1.05,-0.67,-61.52,-128.23
-0.56,-0.34,1.07,5.17,-62.48,-130.6
-0.58,-0.26,1.06,10.34,-63.15,-131.19
-0.61,-0.19,1.01,13.91,-64.01,-130.28
-0.6,-0.16,0.99,16.53,-65.09,-129.47
-0.6,-0.16,0.99,16.53,-65.09,-129.47
-0.57,-0.14,1.0,18.57,-65.98,-129.82
-0.52,-0.12,1.02,19.52,-66.23,-131.21
-0.48,-0.09,1.01,19.04,-65.43,-132.71
-0.47,-0.08,0.99,17.24,-63.53,-133.87
-0.45,-0.1,0.98,14.89,-60.6,-134.95
-0.45,-0.1,0.98,14.89,-60.6,-134.95
-0.42,-0.13,0.98,12.6,-56.54,-135.87
-0.45,-0.14,0.98,10.27,-51.48,-135.96
-0.48,-0.14,0.97,7.66,-46.3,-136.07
-0.48,-0.15,0.97,5.15,-41.31,-136.72
-0.48,-0.13,0.97,2.81,-36.53,-137.1
-0.48,-0.13,0.97,2.81,-36.53,-137.1
-0.47,-0.12,0.97,0.65,-32.23,-137.22
-0.45,-0.1,0.99,-1.36,-28.29,-136.85
-0.44,-0.09,0.98,-3.44,-24.7,-135.97
-0.45,-0.09,0.95,-5.41,-21.36,-134.49
-0.46,-0.09,0.93,-6.96,-18.36,-132.82
-0.46,-0.09,0.93,-6.96,-18.36,-132.82
-0.47,-0.09,0.91,-7.82,-15.76,-131.13
-0.47,-0.07,0.89,-8.08,-13.63,-129.6
-0.45,-0.04,0.88,-7.98,-11.93,-128.31
-0.42,-0.02,0.87,-7.98,-10.48,-126.93
-0.4,0.02,0.86,-8.59,-9.07,-125.06
-0.4,0.02,0.86,-8.59,-9.07,-125.06
-0.4,0.03,0.85,-10.04,-7.6,-122.78
-0.4,0.0,0.82,-11.97,-5.79,-120.56
-0.42,-0.05,0.78,-13.57,-3.47,-118.61
-0.44,-0.08,0.75,-14.24,-0.55,-116.92
-0.46,-0.07,0.74,-13.77,2.94,-115.63
-0.46,-0.07,0.74,-13.77,2.94,-115.63
-0.47,-0.03,0.73,-12.42,6.94,-114.75
-0.48,0.03,0.72,-10.7,11.3,-114.09
-0.47,0.09,0.72,-9.1,15.6,-113.41
-0.47,0.14,0.73,-7.89,19.66,-112.59
-0.49,0.18,0.72,-7.18,23.36,-111.51
-0.49,0.18,0.72,-7.18,23.36,-111.51
-0.52,0.22,0.72,-7.02,26.44,-109.87
-0.56,0.26,0.71,-7.77,28.6,-107.56
-0.57,0.28,0.7,-9.67,29.43,-104.85
-0.56,0.27,0.7,-12.51,28.89,-102.08
-0.54,0.25,0.7,-15.85,27.22,-99.4
-0.54,0.25,0.7,-15.85,27.22,-99.4
-0.52,0.22,0.68,-19.18,24.76,-96.74
-0.5,0.2,0.67,-22.14,21.69,-93.94
-0.5,0.19,0.66,-24.64,18.31,-90.88
-0.5,0.19,0.67,-26.69,14.85,-87.65
-0.52,0.19,0.66,-28.44,11.5,-84.52
-0.52,0.19,0.66,-28.44,11.5,-84.52
-0.53,0.19,0.65,-29.85,8.39,-81.74
-0.54,0.19,0.63,-30.78,5.81,-79.36
-0.55,0.2,0.61,-31.05,3.92,-77.46
-0.55,0.24,0.6,-30.49,2.81,-76.02
-0.52,0.26,0.59,-29.51,2.34,-74.85
-0.52,0.26,0.59,-29.51,2.34,-74.85
-0.55,0.34,0.58,-28.91,2.1,-73.4
-0.45,0.28,0.58,-28.32,1.5,-72.81
-0.4,0.3,0.57,-27.23,1.71,-70.29
-0.41,0.36,0.59,-26.35,1.48,-65.68
-0.42,0.41,0.59,-25.86,1.34,-61.08
-0.42,0.41,0.59,-25.86,1.34,-61.08
-0.41,0.41,0.59,-25.68,1.14,-56.83
-0.43,0.37,0.58,-25.23,1.11,-52.58
-0.45,0.37,0.6,-23.91,1.45,-48.65
-0.47,0.37,0.64,-21.98,2.17,-44.95
-0.48,0.38,0.69,-19.88,3.42,-41.53
-0.48,0.38,0.69,-19.88,3.42,-41.53
-0.5,0.38,0.73,-18.21,4.96,-38.71
-0.51,0.38,0.75,-17.09,6.57,-36.68
-0.5,0.36,0.76,-16.43,8.04,-35.15
-0.51,0.37,0.77,-15.99,9.17,-33.49
-0.52,0.42,0.78,-15.89,9.8,-31.82
-0.52,0.42,0.78,-15.89,9.8,-31.82
-0.51,0.48,0.79,-16.23,9.74,-30.89
-0.47,0.53,0.81,-17.09,9.26,-30.67
-0.43,0.58,0.81,-18.75,8.5,-30.74
-0.4,0.62,0.79,-21.32,7.57,-30.58
-0.38,0.64,0.78,-24.62,6.36,-29.8
-0.38,0.64,0.78,-24.62,6.36,-29.8
-0.36,0.63,0.76,-28.46,4.8,-28.29
-0.33,0.59,0.74,-32.68,3.07,-25.94
-0.32,0.54,0.73,-37.0,1.62,-22.91
-0.32,0.48,0.73,-40.74,0.76,-19.6
-0.33,0.43,0.73,-43.32,0.67,-16.44
-0.33,0.43,0.73,-43.32,0.67,-16.44
-0.34,0.41,0.74,-44.37,1.39,-13.71
-0.34,0.41,0.75,-43.93,2.85,-11.33
-0.31,0.43,0.77,-42.22,4.9,-9.13
-0.24,0.47,0.81,-39.4,7.39,-7.01
-0.17,0.51,0.85,-35.91,10.21,-4.85
-0.17,0.51,0.85,-35.91,10.21,-4.85
-0.14,0.55,0.89,-32.26,13.32,-2.46
-0.16,0.57,0.94,-28.91,16.67,0.33
-0.19,0.58,0.99,-26.23,20.1,3.53
-0.19,0.57,1.01,-24.34,23.27,7.09
-0.18,0.53,1.02,-23.05,26.14,11.14
-0.18,0.53,1.02,-23.05,26.14,11.14
-0.21,0.49,1.02,-21.79,28.82,15.62
-0.25,0.48,1.0,-19.95,31.12,20.09
-0.25,0.49,0.99,-17.13,32.75,24.19
-0.24,0.52,1.01,-13.63,33.88,27.84
-0.26,0.55,1.01,-10.1,34.58,31.2
-0.26,0.55,1.01,-10.1,34.58,31.2
-0.28,0.59,1.01,-6.79,34.87,34.18
-0.25,0.63,1.02,-3.83,34.58,36.79
-0.21,0.66,1.07,-1.41,33.8,39.34
-0.16,0.67,1.11,-0.12,32.78,41.84
-0.13,0.64,1.13,-0.43,31.9,44.77
-0.13,0.64,1.13,-0.43,31.9,44.77
-0.12,0.59,1.13,-1.99,31.24,48.28
-0.12,0.51,1.11,-3.76,30.86,51.77
-0.15,0.45,1.09,-4.59,30.72,55.17
-0.17,0.43,1.08,-4.03,30.57,58.25
-0.16,0.42,1.07,-2.15,30.23,60.9
-0.16,0.42,1.07,-2.15,30.23,60.9
-0.14,0.42,1.06,0.92,29.56,63.5
-0.15,0.44,1.06,4.8,28.56,66.25
-0.16,0.47,1.05,9.04,27.21,68.84
-0.16,0.5,1.05,13.24,25.47,71.2
-0.15,0.54,1.05,16.98,23.45,73.37
-0.15,0.54,1.05,16.98,23.45,73.37
-0.11,0.56,1.06,19.73,21.23,75.38
-0.08,0.57,1.06,21.15,18.96,77.37
-0.06,0.56,1.06,21.22,16.75,79.37
-0.05,0.53,1.05,20.24,14.66,81.27
-0.02,0.48,1.03,18.56,12.8,83.04
-0.02,0.48,1.03,18.56,12.8,83.04
0.0,0.44,1.02,16.51,11.28,84.61
0.01,0.39,1.0,14.37,10.25,85.9
0.03,0.35,1.0,12.44,9.8,86.89
0.04,0.33,1.01,10.88,10.12,87.61
0.06,0.32,1.02,9.66,11.23,88.17
0.06,0.32,1.02,9.66,11.23,88.17
0.08,0.32,1.03,8.6,13.16,88.81
0.09,0.31,1.05,7.6,15.74,89.62
0.08,0.3,1.08,6.42,18.69,90.42
0.03,0.31,1.1,5.08,21.92,91.2
-0.02,0.3,1.13,3.58,25.1,92.14
-0.02,0.3,1.13,3.58,25.1,92.14
-0.06,0.26,1.18,1.68,28.05,93.05
-0.09,0.2,1.21,-0.73,30.87,93.72
-0.14,0.16,1.22,-3.44,33.58,94.21
-0.18,0.11,1.22,-6.1,36.11,94.27
-0.21,0.06,1.23,-8.38,38.28,93.79
-0.21,0.06,1.23,-8.38,38.28,93.79
-0.23,0.02,1.24,-10.11,40.0,92.88
-0.24,-0.01,1.24,-11.42,41.19,91.62
-0.25,-0.02,1.23,-12.58,41.83,90.31
-0.29,-0.07,1.19,-13.32,41.66,88.89
-0.34,-0.09,1.18,-13.11,40.6,86.88
-0.34,-0.09,1.18,-13.11,40.6,86.88
-0.34,-0.08,1.17,-12.59,38.7,83.8
-0.32,-0.07,1.14,-11.74,36.22,80.43
-0.31,-0.04,1.16,-10.63,33.39,77.18
-0.33,0.0,1.14,-9.81,30.54,74.1
-0.28,-0.06,1.11,-9.23,27.57,70.48
-0.28,-0.06,1.11,-9.23,27.57,70.48
-0.3,0.01,1.12,-8.45,25.18,68.27
-0.37,0.07,1.13,-8.51,22.89,66.67
-0.3,0.03,1.1,-9.55,20.58,62.94
-0.31,0.01,1.1,-10.94,18.74,60.06
-0.32,-0.05,1.08,-11.98,17.38,57.28
-0.32,-0.05,1.08,-11.98,17.38,57.28
-0.29,-0.04,1.1,-12.56,16.49,54.54
-0.27,-0.03,1.1,-13.5,16.27,52.24
-0.26,-0.07,1.07,-14.37,16.53,50.31
-0.27,-0.09,1.07,-14.41,17.07,48.68
-0.29,-0.08,1.08,-13.67,17.81,47.39
-0.29,-0.08,1.08,-13.67,17.81,47.39
-0.31,-0.05,1.09,-12.72,18.55,46.31
-0.32,-0.05,1.08,-11.97,19.13,45.01
-0.34,-0.06,1.07,-11.16,19.42,43.44
-0.35,-0.05,1.08,-9.97,19.41,41.71
-0.36,-0.02,1.09,-8.52,19.01,40.02
-0.36,-0.02,1.09,-8.52,19.01,40.02
-0.37,0.0,1.09,-7.32,18.25,38.18
-0.38,0.01,1.09,-6.52,17.14,36.0
-0.37,0.01,1.08,-6.01,15.71,33.56
-0.35,0.02,1.07,-5.66,14.01,31.13
-0.34,0.02,1.06,-5.44,12.22,28.82
-0.34,0.02,1.06,-5.44,12.22,28.82
-0.32,0.02,1.06,-5.25,10.55,26.63
-0.31,0.01,1.07,-5.11,9.07,24.6
-0.32,0.0,1.06,-5.05,7.91,22.72
-0.35,0.0,1.04,-4.92,7.06,21.01
-0.37,0.0,1.03,-4.49,6.31,19.37
-0.37,0.0,1.03,-4.49,6.31,19.37
-0.38,0.01,1.03,-3.6,5.63,17.79
-0.38,0.03,1.03,-2.42,5.01,16.19
-0.38,0.04,1.02,-1.28,4.34,14.55
-0.38,0.05,1.01,-0.38,3.7,12.84
-0.37,0.06,1.0,0.26,3.11,11.24
-0.37,0.06,1.0,0.26,3.11,11.24
-0.36,0.06,0.99,0.71,2.51,9.85
-0.36,0.05,0.97,0.95,1.96,8.69
-0.36,0.05,0.95,1.14,1.51,7.73
-0.36,0.05,0.94,1.43,1.08,6.82
-0.36,0.04,0.94,1.87,0.73,5.87
-0.36,0.04,0.94,1.87,0.73,5.87
-0.36,0.05,0.94,2.44,0.56,4.9
-0.36,0.07,0.95,3.03,0.6,3.86
-0.36,0.09,0.97,3.48,0.94,2.73
-0.34,0.11,0.98,3.39,1.56,1.52
-0.34,0.12,0.99,2.64,2.45,0.42
-0.34,0.12,0.99,2.64,2.45,0.42
-0.36,0.12,0.99,1.34,3.57,-0.48
-0.39,0.12,0.97,-0.22,4.69,-1.18
-0.38,0.09,0.97,-1.67,5.52,-2.16
-0.35,0.09,0.98,-2.67,6.22,-2.76
-0.38,0.1,0.99,-3.45,6.8,-2.49
-0.38,0.1,0.99,-3.45,6.8,-2.49
-0.38,0.1,1.0,-4.08,7.06,-2.69
-0.37,0.13,1.01,-5.01,7.13,-2.95
-0.38,0.14,1.03,-6.3,7.03,-3.05
-0.37,0.09,1.0,-8.01,6.84,-3.29
-0.38,0.04,0.95,-8.93,6.63,-2.95
-0.38,0.04,0.95,-8.93,6.63,-2.95
-0.41,0.0,0.96,-8.47,6.42,-2.54
-0.41,-0.0,0.95,-6.58,6.1,-2.56
-0.4,0.03,0.97,-3.76,5.68,-2.79
-0.38,0.06,0.98,-0.72,5.18,-3.31
-0.37,0.1,0.99,2.14,4.68,-3.99
-0.37,0.1,0.99,2.14,4.68,-3.99
-0.38,0.14,0.99,4.57,4.21,-4.51
-0.4,0.17,0.98,6.38,3.66,-4.62
-0.42,0.21,0.97,7.6,2.95,-4.4
-0.42,0.23,0.97,8.27,2.04,-4.15
-0.42,0.25,0.99,8.44,0.95,-4.08
-0.42,0.25,0.99,8.44,0.95,-4.08
-0.43,0.26,0.99,8.11,-0.23,-4.05
-0.44,0.27,0.98,7.34,-1.56,-3.98
-0.43,0.26,0.98,6.26,-3.07,-3.9
-0.42,0.24,0.98,5.03,-4.68,-3.83
-0.42,0.23,0.97,3.78,-6.48,-3.7
-0.42,0.23,0.97,3.78,-6.48,-3.7
-0.43,0.22,0.95,2.71,-8.5,-3.5
-0.43,0.21,0.94,2.11,-10.74,-3.23
-0.42,0.22,0.92,1.89,-13.27,-2.93
-0.39,0.23,0.92,1.87,-15.96,-2.5
-0.39,0.23,0.92,1.77,-18.58,-2.06
-0.37,0.24,0.92,1.77,-18.58,-2.06
-0.35,0.24,0.9,1.42,-20.9,-1.74
-0.33,0.24,0.89,1.03,-22.67,-1.45
-0.3,0.23,0.89,0.78,-23.83,-1.25
-0.27,0.24,0.9,0.58,-24.26,-1.08
-0.27,0.24,0.9,0.17,-23.91,-0.9
-0.24,0.24,0.91,0.17,-23.91,-0.9
-0.24,0.24,0.91,-0.54,-22.74,-0.62
-0.24,0.22,0.9,-1.36,-20.93,-0.19
-0.25,0.21,0.9,-1.98,-18.67,0.47
-0.25,0.2,0.9,-2.32,-16.1,1.23
-0.25,0.2,0.9,-2.32,-16.1,1.23
-0.25,0.18,0.9,-2.35,-13.33,2.07
-0.24,0.17,0.9,-2.09,-10.5,3.0
-0.25,0.14,0.9,-1.43,-7.73,4.01
-0.25,0.13,0.9,-0.3,-5.14,5.06
-0.25,0.13,0.9,1.29,-2.88,6.13
-0.25,0.13,0.9,1.29,-2.88,6.13
-0.27,0.14,0.92,3.27,-0.96,7.29
-0.29,0.15,0.93,5.29,0.44,8.15
-0.31,0.18,0.95,7.08,1.3,8.55
-0.32,0.21,0.96,8.34,1.71,8.52
-0.31,0.23,0.97,8.72,1.76,8.05
-0.31,0.23,0.97,8.72,1.76,8.05
-0.29,0.24,0.96,8.09,1.63,7.2
-0.28,0.23,0.95,6.7,1.41,6.19
-0.27,0.2,0.94,4.87,1.18,5.14
-0.25,0.17,0.93,2.97,1.01,4.0
-0.23,0.13,0.92,1.37,0.95,2.76
-0.23,0.13,0.92,1.37,0.95,2.76
-0.22,0.11,0.91,0.44,1.06,1.56
-0.22,0.1,0.9,0.46,1.37,0.48
-0.22,0.12,0.91,1.43,1.86,-0.44
-0.22,0.15,0.92,3.07,2.47,-1.14
-0.23,0.17,0.93,4.97,3.11,-1.7
-0.23,0.17,0.93,4.97,3.11,-1.7
-0.24,0.2,0.94,6.87,3.8,-2.04
-0.25,0.23,0.95,8.45,4.48,-2.23
-0.26,0.24,0.95,9.58,5.13,-2.42
-0.28,0.23,0.95,10.3,5.78,-2.65
-0.31,0.23,0.95,10.86,6.43,-2.86
-0.31,0.23,0.95,10.86,6.43,-2.86
-0.34,0.23,0.96,11.36,6.94,-3.11
-0.38,0.24,0.98,11.7,7.32,-3.5
-0.42,0.25,0.99,11.77,7.55,-3.98
-0.47,0.27,0.99,11.53,7.51,-4.56
-0.5,0.28,1.0,11.01,7.1,-5.24
-0.5,0.28,1.0,11.01,7.1,-5.24
-0.51,0.3,1.0,10.12,6.35,-5.88
-0.52,0.3,1.01,8.73,5.29,-6.38
-0.52,0.29,1.0,6.8,4.0,-6.74
-0.51,0.27,0.99,4.61,2.53,-6.85
-0.49,0.24,0.98,2.39,0.91,-6.62
-0.49,0.24,0.98,2.39,0.91,-6.62
-0.47,0.21,0.96,0.36,-0.71,-5.97
-0.44,0.18,0.95,-1.25,-2.15,-4.95
-0.4,0.15,0.94,-2.35,-3.24,-3.65
-0.36,0.12,0.92,-2.82,-3.75,-2.09
-0.33,0.09,0.92,-2.54,-3.65,-0.31
-0.33,0.09,0.92,-2.54,-3.65,-0.31
-0.31,0.07,0.91,-1.48,-2.88,1.67
-0.3,0.06,0.91,0.23,-1.5,3.77
-0.3,0.05,0.9,2.52,0.18,5.8
-0.29,0.05,0.89,5.34,2.07,7.73
-0.29,0.06,0.9,8.53,4.03,9.43
-0.29,0.06,0.9,8.53,4.03,9.43
-0.29,0.08,0.9,11.79,5.94,10.77
-0.31,0.11,0.91,14.75,7.65,11.62
