ax,ay,az,gx,gy,gz
-0.2,-0.64,0.71,1.41,-6.21,0.57
-0.2,-0.64,0.7,0.91,-6.65,0.07
-0.19,-0.64,0.7,0.19,-6.79,-0.51
-0.19,-0.64,0.7,0.19,-6.79,-0.51
-0.19,-0.65,0.69,-0.6,-6.63,-1.09
-0.18,-0.66,0.68,-1.32,-6.21,-1.65
-0.17,-0.66,0.67,-1.79,-5.59,-2.08
-0.17,-0.67,0.67,-1.88,-4.85,-2.31
-0.18,-0.67,0.66,-1.58,-4.03,-2.34
-0.18,-0.67,0.66,-1.58,-4.03,-2.34
-0.19,-0.66,0.66,-0.96,-3.26,-2.24
-0.2,-0.65,0.67,-0.1,-2.65,-2.08
-0.22,-0.64,0.68,0.9,-2.33,-1.96
-0.23,-0.63,0.69,1.9,-2.34,-1.93
-0.23,-0.62,0.69,2.79,-2.76,-2.04
-0.23,-0.62,0.69,2.79,-2.76,-2.04
-0.23,-0.61,0.69,3.42,-3.5,-2.31
-0.22,-0.6,0.7,3.72,-4.42,-2.71
-0.21,-0.59,0.7,3.59,-5.3,-3.21
-0.2,-0.59,0.7,2.94,-5.99,-3.75
-0.18,-0.58,0.69,1.86,-6.38,-4.27
-0.18,-0.58,0.69,1.86,-6.38,-4.27
-0.17,-0.58,0.69,0.47,-6.24,-4.69
-0.16,-0.57,0.69,-1.28,-5.4,-5.04
-0.15,-0.58,0.68,-3.44,-3.83,-5.38
-0.14,-0.61,0.67,-5.96,-1.57,-5.72
-0.15,-0.64,0.65,-8.37,1.13,-5.85
-0.15,-0.64,0.65,-8.37,1.13,-5.85
-0.16,-0.66,0.63,-10.18,3.93,-5.59
-0.18,-0.68,0.62,-11.11,6.46,-4.99
-0.2,-0.7,0.62,-11.07,8.42,-4.2
-0.22,-0.7,0.62,-9.97,9.6,-3.25
-0.23,-0.69,0.63,-7.83,9.85,-2.17
-0.23,-0.69,0.63,-7.83,9.85,-2.17
-0.25,-0.67,0.64,-4.9,9.13,-0.99
-0.27,-0.64,0.67,-1.63,7.41,0.2
-0.28,-0.61,0.69,1.52,4.82,1.2
-0.27,-0.58,0.71,4.05,1.58,1.91
-0.25,-0.56,0.72,5.67,-1.88,2.38
-0.25,-0.56,0.72,5.67,-1.88,2.38
-0.23,-0.56,0.73,6.15,-5.15,2.61
-0.22,-0.56,0.73,5.34,-7.93,2.51
-0.21,-0.59,0.71,3.45,-10.08,2.0
-0.19,-0.62,0.69,0.98,-11.45,1.21
-0.16,-0.65,0.68,-1.47,-11.98,0.35
-0.16,-0.65,0.68,-1.47,-11.98,0.35
-0.15,-0.67,0.66,-3.5,-11.61,-0.47
-0.14,-0.7,0.65,-4.92,-10.43,-1.12
-0.14,-0.72,0.64,-5.53,-8.75,-1.53
-0.15,-0.73,0.64,-5.15,-6.82,-1.64
-0.16,-0.72,0.64,-3.74,-4.82,-1.42
-0.16,-0.72,0.64,-3.74,-4.82,-1.42
-0.18,-0.7,0.66,-1.52,-2.93,-0.95
-0.2,-0.67,0.68,1.06,-1.3,-0.45
-0.21,-0.65,0.69,3.53,-0.03,-0.11
-0.21,-0.64,0.7,5.66,0.78,0.04
-0.21,-0.62,0.71,7.4,1.16,0.07
-0.21,-0.62,0.71,7.4,1.16,0.07
-0.21,-0.61,0.72,8.68,1.23,0.02
-0.2,-0.59,0.73,9.3,1.11,-0.17
-0.2,-0.58,0.74,9.11,0.91,-0.52
-0.2,-0.59,0.74,8.09,0.68,-1.0
-0.19,-0.6,0.73,6.44,0.55,-1.6
-0.19,-0.6,0.73,6.44,0.55,-1.6
-0.18,-0.61,0.72,4.45,0.6,-2.22
-0.17,-0.63,0.7,2.4,0.94,-2.83
-0.17,-0.65,0.7,0.55,1.49,-3.38
-0.18,-0.66,0.69,-0.87,2.22,-3.87
-0.18,-0.67,0.68,-1.67,3.06,-4.26
-0.18,-0.67,0.68,-1.67,3.06,-4.26
-0.18,-0.68,0.67,-1.71,3.88,-4.5
-0.18,-0.67,0.67,-0.94,4.55,-4.53
-0.19,-0.66,0.68,0.45,5.1,-4.37
-0.2,-0.64,0.7,2.15,5.51,-4.12
-0.21,-0.62,0.7,3.87,5.8,-3.89
-0.21,-0.62,0.7,3.87,5.8,-3.89
-0.21,-0.6,0.71,5.37,5.91,-3.74
-0.21,-0.58,0.72,6.56,5.85,-3.62
-0.21,-0.56,0.73,7.24,5.64,-3.48
-0.21,-0.55,0.73,7.33,5.27,-3.31
-0.21,-0.54,0.73,6.85,4.8,-3.1
-0.21,-0.54,0.73,6.85,4.8,-3.1
-0.2,-0.54,0.73,5.89,4.28,-2.81
-0.2,-0.54,0.72,4.57,3.76,-2.45
-0.19,-0.54,0.72,3.12,3.29,-1.99
-0.2,-0.55,0.72,1.74,2.79,-1.4
-0.19,-0.55,0.71,0.57,2.21,-0.73
-0.19,-0.55,0.71,0.57,2.21,-0.73
-0.18,-0.54,0.71,-0.16,1.5,0.04
-0.17,-0.53,0.72,-0.33,0.7,0.95
-0.16,-0.51,0.73,-0.08,-0.0,1.9
-0.15,-0.49,0.74,0.38,-0.55,2.89
-0.14,-0.47,0.75,0.93,-1.01,3.99
-0.14,-0.47,0.75,0.93,-1.01,3.99
-0.13,-0.45,0.76,1.49,-1.38,5.25
-0.13,-0.44,0.78,1.94,-1.6,6.68
-0.13,-0.43,0.79,2.23,-1.65,8.23
-0.13,-0.42,0.8,2.41,-1.58,9.9
-0.13,-0.42,0.8,2.43,-1.41,11.55
-0.14,-0.4,0.81,2.43,-1.41,11.55
-0.15,-0.39,0.82,2.32,-1.31,13.04
-0.14,-0.38,0.83,2.12,-1.32,14.37
-0.13,-0.37,0.84,1.87,-1.41,15.6
-0.12,-0.36,0.86,1.59,-1.56,16.8
-0.12,-0.36,0.86,1.59,-1.56,16.8
-0.11,-0.34,0.87,1.26,-1.75,18.03
-0.1,-0.32,0.89,0.84,-1.87,19.28
-0.1,-0.31,0.9,0.3,-1.93,20.57
-0.11,-0.3,0.92,-0.35,-1.86,21.93
-0.12,-0.29,0.95,-1.18,-1.58,23.44
-0.12,-0.29,0.95,-1.18,-1.58,23.44
-0.15,-0.3,0.96,-2.37,-1.13,25.13
-0.18,-0.32,0.97,-3.92,-0.67,26.85
-0.21,-0.35,0.97,-5.6,-0.31,28.51
-0.23,-0.38,0.97,-6.96,-0.24,30.18
-0.24,-0.39,0.98,-7.76,-0.61,31.96
-0.24,-0.39,0.98,-7.76,-0.61,31.96
-0.26,-0.39,0.99,-8.17,-1.52,33.78
-0.26,-0.4,1.0,-8.41,-3.02,35.58
-0.25,-0.41,1.0,-8.66,-5.1,37.4
-0.24,-0.43,1.0,-9.05,-7.65,39.2
-0.22,-0.45,1.0,-9.63,-10.52,40.94
-0.22,-0.45,1.0,-9.63,-10.52,40.94
-0.2,-0.48,0.99,-10.38,-13.48,42.62
-0.18,-0.51,0.98,-11.23,-16.43,44.16
-0.17,-0.54,0.97,-12.14,-19.14,45.48
-0.15,-0.56,0.95,-12.98,-21.66,46.48
-0.14,-0.58,0.93,-13.68,-23.87,47.13
-0.14,-0.58,0.93,-13.68,-23.87,47.13
-0.13,-0.6,0.93,-14.28,-25.84,47.31
-0.11,-0.62,0.93,-14.86,-27.61,46.93
-0.08,-0.64,0.93,-15.59,-29.15,46.12
-0.04,-0.67,0.93,-16.54,-30.43,45.16
-0.03,-0.7,0.92,-17.71,-31.42,44.32
-0.03,-0.7,0.92,-17.71,-31.42,44.32
-0.02,-0.74,0.91,-19.07,-32.11,43.56
-0.01,-0.78,0.89,-20.34,-32.6,42.9
0.0,-0.81,0.86,-21.15,-33.01,42.3
0.0,-0.81,0.85,-21.12,-33.5,41.88
-0.01,-0.78,0.86,-20.33,-34.38,41.81
-0.01,-0.78,0.86,-20.33,-34.38,41.81
-0.02,-0.77,0.88,-19.26,-35.78,41.9
-0.03,-0.78,0.87,-18.56,-37.84,41.83
-0.03,-0.8,0.86,-18.21,-40.45,41.59
-0.04,-0.83,0.85,-17.93,-43.36,41.15
-0.04,-0.85,0.83,-17.67,-46.27,40.3
-0.04,-0.85,0.83,-17.67,-46.27,40.3
-0.04,-0.86,0.82,-17.48,-48.85,38.88
-0.04,-0.87,0.8,-17.39,-50.82,36.76
-0.03,-0.87,0.78,-17.42,-52.05,33.96
-0.03,-0.86,0.78,-17.67,-52.53,30.65
-0.03,-0.85,0.77,-18.26,-52.39,26.96
-0.03,-0.85,0.77,-18.26,-52.39,26.96
-0.03,-0.84,0.77,-19.35,-51.84,23.11
-0.04,-0.86,0.76,-21.08,-51.03,19.36
-0.04,-0.89,0.73,-23.21,-50.12,15.86
-0.03,-0.92,0.69,-25.31,-49.13,12.65
-0.03,-0.95,0.66,-26.91,-48.04,9.69
-0.03,-0.95,0.66,-26.91,-48.04,9.69
-0.02,-0.97,0.62,-27.56,-46.79,6.98
-0.01,-0.98,0.6,-27.06,-45.44,4.51
-0.01,-0.98,0.59,-25.34,-43.97,2.27
-0.02,-0.97,0.57,-22.53,-42.4,0.29
-0.05,-0.94,0.57,-18.96,-41.03,-1.54
-0.05,-0.94,0.57,-18.96,-41.03,-1.54
-0.08,-0.9,0.58,-15.0,-39.87,-3.39
-0.1,-0.88,0.59,-11.2,-38.93,-5.36
-0.12,-0.86,0.6,-8.11,-38.33,-7.36
-0.14,-0.86,0.6,-5.83,-38.16,-9.32
-0.14,-0.86,0.59,-4.29,-38.47,-11.26
-0.14,-0.86,0.59,-4.29,-38.47,-11.26
-0.14,-0.87,0.59,-3.41,-39.11,-13.23
-0.14,-0.88,0.57,-2.98,-39.98,-15.27
-0.14,-0.88,0.56,-2.8,-40.9,-17.53
-0.14,-0.88,0.54,-2.74,-41.54,-20.18
-0.14,-0.87,0.54,-2.64,-41.61,-23.12
-0.14,-0.87,0.54,-2.64,-41.61,-23.12
-0.13,-0.87,0.54,-2.69,-40.98,-26.09
-0.12,-0.87,0.53,-3.35,-39.67,-28.89
-0.1,-0.84,0.59,-4.83,-37.73,-31.34
-0.14,-0.87,0.49,-8.52,-35.07,-32.04
-0.2,-1.06,0.4,-10.37,-33.38,-31.47
-0.2,-1.06,0.4,-10.37,-33.38,-31.47
-0.22,-1.04,0.37,-8.01,-29.28,-32.93
-0.29,-0.97,0.45,-4.54,-24.79,-34.92
-0.3,-0.9,0.5,-1.64,-22.08,-37.03
-0.32,-0.85,0.48,-1.13,-19.95,-37.87
-0.34,-0.86,0.47,-2.25,-19.53,-37.79
-0.34,-0.86,0.47,-2.25,-19.53,-37.79
-0.32,-0.92,0.41,-2.82,-19.48,-38.53
-0.32,-1.0,0.34,-1.1,-18.73,-39.76
-0.33,-1.04,0.35,3.22,-17.76,-41.49
-0.33,-1.01,0.4,9.2,-16.38,-43.57
-0.31,-0.96,0.44,15.09,-14.19,-46.01
-0.31,-0.96,0.44,15.09,-14.19,-46.01
-0.27,-0.92,0.45,19.84,-11.14,-48.63
-0.24,-0.9,0.45,23.17,-7.25,-51.12
-0.24,-0.89,0.45,25.01,-2.69,-52.88
-0.28,-0.88,0.45,25.62,2.21,-54.06
-0.32,-0.88,0.43,25.25,7.12,-55.19
-0.32,-0.88,0.43,25.25,7.12,-55.19
-0.34,-0.9,0.41,24.25,11.77,-56.27
-0.35,-0.92,0.37,22.97,15.7,-57.18
-0.34,-0.93,0.36,21.67,18.56,-57.86
-0.34,-0.94,0.36,20.69,20.18,-58.41
-0.34,-0.94,0.39,20.24,20.87,-59.01
-0.34,-0.94,0.39,20.24,20.87,-59.01
-0.34,-0.94,0.41,20.14,20.89,-59.64
-0.34,-0.94,0.43,19.85,20.15,-59.98
-0.34,-0.95,0.44,18.95,18.49,-60.02
-0.34,-0.97,0.44,17.49,15.98,-59.97
-0.35,-0.98,0.45,15.94,13.04,-60.18
-0.35,-0.98,0.45,15.94,13.04,-60.18
-0.33,-0.99,0.45,14.61,10.29,-61.01
-0.28,-1.0,0.43,13.33,8.03,-62.49
-0.22,-1.01,0.4,11.83,6.35,-64.28
-0.17,-1.0,0.39,10.3,5.52,-66.07
-0.14,-1.0,0.39,8.92,6.15,-67.99
-0.14,-1.0,0.39,8.92,6.15,-67.99
-0.09,-1.0,0.37,7.66,8.46,-70.06
-0.06,-1.02,0.34,6.4,12.27,-71.99
-0.05,-1.04,0.3,5.07,16.82,-73.51
-0.06,-1.05,0.28,4.09,21.69,-74.59
-0.09,-1.05,0.28,3.94,26.69,-75.34
-0.09,-1.05,0.28,3.94,26.69,-75.34
-0.12,-1.05,0.29,4.76,31.71,-76.13
-0.14,-1.05,0.29,6.21,36.28,-76.88
-0.16,-1.04,0.3,8.06,40.07,-77.32
-0.19,-1.02,0.33,10.33,42.78,-77.43
-0.21,-0.99,0.36,12.9,44.4,-77.48
-0.21,-0.99,0.36,12.9,44.4,-77.48
-0.23,-0.97,0.37,15.57,44.84,-77.49
-0.24,-0.94,0.39,18.27,44.18,-77.34
-0.25,-0.92,0.43,20.82,42.74,-77.15
-0.23,-0.9,0.46,22.66,40.93,-76.99
-0.22,-0.89,0.48,23.24,38.97,-76.78
-0.22,-0.89,0.48,23.24,38.97,-76.78
-0.21,-0.89,0.5,22.33,37.08,-76.86
-0.21,-0.92,0.49,20.39,35.82,-77.78
-0.18,-0.95,0.48,18.37,35.73,-79.61
-0.15,-0.96,0.47,16.67,37.09,-81.87
-0.15,-0.94,0.47,15.26,39.71,-84.03
-0.15,-0.94,0.47,15.26,39.71,-84.03
-0.16,-0.91,0.46,13.88,43.22,-86.06
-0.17,-0.89,0.44,12.41,47.1,-87.99
-0.2,-0.86,0.43,10.83,50.71,-89.67
-0.22,-0.85,0.43,9.28,53.66,-90.98
-0.24,-0.82,0.44,8.08,55.84,-92.08
-0.24,-0.82,0.44,8.08,55.84,-92.08
-0.25,-0.81,0.47,7.18,57.36,-93.07
-0.26,-0.79,0.51,6.47,58.25,-93.55
-0.26,-0.76,0.56,5.6,58.64,-93.31
-0.26,-0.76,0.6,4.26,58.59,-92.33
-0.28,-0.77,0.6,2.44,58.13,-90.85
-0.28,-0.77,0.6,2.44,58.13,-90.85
-0.31,-0.78,0.57,0.7,57.26,-89.06
-0.32,-0.8,0.53,-0.34,56.05,-87.23
-0.32,-0.79,0.51,-0.46,54.22,-85.54
-0.33,-0.77,0.49,-0.07,51.73,-84.25
-0.34,-0.73,0.49,0.64,48.79,-83.65
-0.34,-0.73,0.49,0.64,48.79,-83.65
-0.33,-0.67,0.51,1.56,45.93,-84.2
-0.29,-0.62,0.55,2.09,43.63,-86.05
-0.23,-0.59,0.59,1.17,42.01,-88.51
-0.16,-0.59,0.6,-1.86,41.39,-90.0
-0.19,-0.6,0.57,-6.32,41.85,-88.65
-0.19,-0.6,0.57,-6.32,41.85,-88.65
-0.31,-0.58,0.56,-10.76,43.07,-86.38
-0.35,-0.57,0.58,-14.25,44.91,-87.11
-0.3,-0.63,0.58,-16.97,47.15,-89.46
-0.29,-0.67,0.57,-19.76,48.6,-89.64
-0.31,-0.63,0.59,-22.31,48.8,-87.47
-0.31,-0.63,0.59,-22.31,48.8,-87.47
-0.33,-0.55,0.63,-23.3,48.72,-84.86
-0.35,-0.53,0.67,-22.51,49.07,-83.04
-0.36,-0.55,0.68,-20.55,49.35,-81.64
-0.38,-0.56,0.66,-17.73,49.24,-79.73
-0.4,-0.52,0.65,-13.58,48.67,-77.03
-0.4,-0.52,0.65,-13.58,48.67,-77.03
-0.39,-0.47,0.66,-8.38,47.92,-74.5
-0.34,-0.42,0.71,-3.15,46.68,-71.93
-0.33,-0.35,0.77,0.65,44.86,-68.1
-0.34,-0.29,0.83,1.67,42.54,-64.24
-0.31,-0.3,0.83,0.21,40.54,-61.46
-0.31,-0.3,0.83,0.21,40.54,-61.46
-0.28,-0.36,0.81,-2.74,39.37,-59.37
-0.27,-0.45,0.79,-6.34,38.72,-57.5
-0.27,-0.5,0.78,-9.72,38.66,-55.12
-0.3,-0.52,0.76,-12.39,39.3,-52.37
-0.32,-0.52,0.75,-14.13,40.38,-49.79
-0.32,-0.52,0.75,-14.13,40.38,-49.79
-0.32,-0.52,0.73,-14.9,41.55,-47.81
-0.31,-0.51,0.73,-14.75,42.6,-46.25
-0.3,-0.48,0.73,-13.84,43.31,-44.79
-0.3,-0.43,0.74,-12.43,43.51,-43.27
-0.31,-0.39,0.76,-10.94,43.15,-41.66
-0.31,-0.39,0.76,-10.94,43.15,-41.66
-0.31,-0.37,0.78,-9.85,42.18,-39.93
-0.31,-0.36,0.79,-9.66,40.59,-38.0
-0.29,-0.37,0.8,-10.59,38.56,-35.91
-0.26,-0.4,0.81,-12.55,36.31,-33.69
-0.23,-0.46,0.81,-15.26,34.24,-31.34
-0.23,-0.46,0.81,-15.26,34.24,-31.34
-0.21,-0.54,0.8,-18.12,32.61,-28.99
-0.19,-0.61,0.77,-20.5,31.67,-26.86
-0.18,-0.67,0.74,-21.65,31.48,-25.0
-0.18,-0.72,0.72,-20.95,31.93,-23.38
-0.2,-0.72,0.7,-18.02,32.79,-21.92
-0.2,-0.72,0.7,-18.02,32.79,-21.92
-0.23,-0.67,0.7,-13.04,33.67,-20.69
-0.26,-0.59,0.72,-6.96,34.01,-19.93
-0.28,-0.54,0.74,-0.95,33.35,-19.72
-0.25,-0.49,0.74,4.63,31.43,-19.76
-0.23,-0.42,0.77,9.75,28.56,-19.5
-0.23,-0.42,0.77,9.75,28.56,-19.5
-0.21,-0.38,0.82,13.25,24.38,-19.25
-0.15,-0.37,0.85,14.99,19.6,-19.01
-0.14,-0.32,0.86,14.46,14.84,-17.27
-0.17,-0.34,0.86,11.38,9.78,-14.38
-0.18,-0.4,0.8,7.45,4.81,-12.08
-0.18,-0.4,0.8,7.45,4.81,-12.08
-0.16,-0.48,0.74,4.83,1.04,-11.55
-0.11,-0.53,0.75,4.26,-1.66,-11.86
-0.07,-0.54,0.8,4.82,-3.44,-11.79
-0.06,-0.49,0.83,5.3,-4.47,-11.51
-0.06,-0.47,0.81,5.32,-4.75,-11.67
-0.06,-0.47,0.81,5.32,-4.75,-11.67
-0.07,-0.48,0.8,5.32,-4.6,-12.73
-0.05,-0.46,0.79,5.57,-4.26,-14.85
-0.01,-0.41,0.81,5.75,-3.83,-17.52
0.05,-0.36,0.84,5.24,-3.37,-20.0
0.11,-0.34,0.85,3.74,-2.83,-21.83
0.11,-0.34,0.85,3.74,-2.83,-21.83
0.16,-0.36,0.85,1.7,-1.89,-23.05
0.17,-0.39,0.84,-0.05,-0.11,-23.27
0.14,-0.39,0.84,-1.06,2.42,-22.32
0.1,-0.41,0.84,-0.97,5.45,-20.98
0.06,-0.42,0.84,0.79,8.84,-19.4
0.06,-0.42,0.84,0.79,8.84,-19.4
0.03,-0.41,0.88,4.21,12.41,-17.63
-0.0,-0.36,0.91,8.8,15.97,-15.45
-0.03,-0.3,0.95,13.72,19.19,-12.78
-0.04,-0.26,1.0,18.15,21.7,-9.81
-0.04,-0.24,1.02,21.46,23.38,-6.62
-0.04,-0.24,1.02,21.46,23.38,-6.62
-0.05,-0.23,1.03,23.58,24.12,-3.25
-0.05,-0.23,1.03,24.67,23.96,-0.23
-0.04,-0.24,1.04,25.2,22.95,2.78
-0.03,-0.22,1.07,24.96,21.44,5.74
-0.02,-0.2,1.1,23.53,19.87,8.18
-0.02,-0.2,1.1,23.53,19.87,8.18
0.02,-0.21,1.09,20.88,18.66,9.78
0.05,-0.24,1.09,17.56,17.84,11.08
0.05,-0.28,1.1,13.88,17.4,12.65
0.04,-0.31,1.09,9.94,17.1,14.54
0.02,-0.35,1.06,6.08,16.84,16.61
0.02,-0.35,1.06,6.08,16.84,16.61
0.0,-0.38,1.04,2.64,16.32,18.88
0.0,-0.4,1.02,-0.26,15.28,21.17
0.02,-0.42,1.01,-2.54,13.78,23.54
0.05,-0.44,1.0,-4.19,11.9,26.14
0.06,-0.45,0.99,-5.22,9.93,28.9
0.06,-0.45,0.99,-5.22,9.93,28.9
0.06,-0.46,0.96,-5.47,8.2,31.61
0.06,-0.49,0.95,-4.68,6.89,34.14
0.08,-0.49,0.97,-2.74,6.12,35.82
0.11,-0.53,0.96,-0.35,6.17,37.95
0.07,-0.49,0.98,2.24,6.31,41.82
0.07,-0.49,0.98,2.24,6.31,41.82
0.07,-0.51,0.98,5.08,6.66,43.65
0.1,-0.56,0.97,8.62,7.32,44.51
0.08,-0.56,0.99,12.12,7.57,47.08
0.03,-0.5,0.99,15.18,7.2,50.53
0.01,-0.48,0.97,17.75,6.32,52.92
0.01,-0.48,0.97,17.75,6.32,52.92
0.03,-0.49,0.97,19.62,4.54,54.83
0.05,-0.49,0.98,20.43,1.7,57.19
0.06,-0.48,0.98,20.04,-1.65,59.72
0.08,-0.52,0.97,18.73,-4.92,61.64
0.11,-0.57,0.96,16.88,-7.68,62.99
0.11,-0.57,0.96,16.88,-7.68,62.99
0.11,-0.6,0.95,14.94,-9.81,64.15
0.09,-0.61,0.95,13.16,-11.14,65.13
0.07,-0.61,0.95,11.55,-11.84,65.6
0.06,-0.6,0.95,9.94,-12.35,65.45
0.05,-0.58,0.95,8.1,-12.92,64.7
0.05,-0.58,0.95,8.1,-12.92,64.7
0.04,-0.55,0.95,5.67,-13.58,63.53
0.09,-0.61,0.9,2.73,-14.5,62.12
0.08,-0.61,0.83,-0.1,-16.12,62.45
0.07,-0.67,0.75,-1.47,-18.28,62.75
0.1,-0.72,0.72,0.13,-20.61,62.04
0.1,-0.72,0.72,0.13,-20.61,62.04
0.14,-0.71,0.78,3.49,-23.12,62.09
0.15,-0.67,0.82,7.43,-25.71,63.26
0.18,-0.64,0.83,10.94,-27.67,64.3
0.21,-0.63,0.85,13.63,-28.73,65.18
0.2,-0.65,0.84,15.6,-28.96,66.52
0.2,-0.65,0.84,15.6,-28.96,66.52
0.13,-0.62,0.82,16.93,-28.61,68.59
0.07,-0.66,0.81,17.63,-28.14,69.82
0.08,-0.7,0.77,18.49,-27.83,70.1
0.06,-0.64,0.82,19.23,-27.82,70.93
0.05,-0.66,0.83,19.29,-27.63,70.92
0.05,-0.66,0.83,19.29,-27.63,70.92
0.03,-0.68,0.8,18.95,-27.45,70.67
0.02,-0.71,0.79,18.36,-27.34,70.18
0.03,-0.72,0.79,17.91,-27.25,69.55
0.04,-0.74,0.8,17.44,-27.28,68.72
0.03,-0.75,0.79,17.06,-27.24,67.87
0.03,-0.75,0.79,17.06,-27.24,67.87
0.01,-0.76,0.78,16.84,-27.16,67.2
0.01,-0.77,0.79,16.73,-27.38,66.57
0.01,-0.79,0.77,16.8,-27.89,65.89
0.01,-0.8,0.77,17.27,-28.64,65.32
0.0,-0.8,0.77,18.09,-29.51,65.09
0.0,-0.8,0.77,18.09,-29.51,65.09
-0.02,-0.78,0.76,19.05,-30.48,65.03
-0.04,-0.77,0.77,19.91,-31.58,64.87
-0.04,-0.76,0.76,20.3,-32.47,64.44
-0.04,-0.74,0.75,20.13,-33.21,63.7
-0.04,-0.74,0.75,19.44,-33.79,62.55
-0.04,-0.74,0.73,19.44,-33.79,62.55
-0.04,-0.73,0.72,18.25,-34.17,61.09
-0.03,-0.72,0.72,16.47,-34.37,59.24
-0.02,-0.73,0.7,14.13,-34.43,57.07
-0.01,-0.74,0.69,11.27,-34.37,54.75
-0.01,-0.74,0.69,8.11,-34.2,52.27
-0.02,-0.75,0.67,8.11,-34.2,52.27
-0.03,-0.75,0.65,5.07,-33.96,49.53
-0.03,-0.75,0.62,2.47,-33.57,46.45
-0.02,-0.77,0.61,0.57,-33.01,43.13
0.01,-0.79,0.59,-0.3,-32.26,40.12
0.01,-0.79,0.59,-0.3,-32.26,40.12
0.01,-0.77,0.6,-0.29,-31.23,38.17
-0.01,-0.71,0.63,0.19,-29.83,37.14
-0.03,-0.69,0.63,0.6,-28.22,35.91
-0.03,-0.69,0.62,0.84,-26.58,34.51
-0.04,-0.69,0.62,1.11,-24.97,33.51
-0.04,-0.69,0.62,1.11,-24.97,33.51
-0.06,-0.69,0.62,1.72,-23.39,32.81
-0.07,-0.68,0.62,2.64,-22.02,32.23
-0.06,-0.66,0.65,3.64,-20.81,31.74
-0.05,-0.65,0.66,4.41,-19.56,31.41
-0.06,-0.64,0.68,4.74,-18.16,31.22
-0.06,-0.64,0.68,4.74,-18.16,31.22
-0.07,-0.64,0.68,4.6,-16.59,31.03
-0.09,-0.65,0.68,4.12,-14.99,30.61
-0.1,-0.65,0.68,3.54,-13.42,29.98
-0.1,-0.68,0.68,2.87,-11.73,29.1
-0.1,-0.69,0.67,2.58,-9.98,28.16
-0.1,-0.69,0.67,2.58,-9.98,28.16
-0.11,-0.68,0.68,2.75,-8.05,27.16
-0.14,-0.67,0.71,3.25,-6.09,26.23
-0.16,-0.61,0.74,3.67,-4.25,24.86
-0.15,-0.63,0.74,3.24,-2.71,23.3
-0.15,-0.65,0.72,2.96,-1.69,22.74
-0.15,-0.65,0.72,2.96,-1.69,22.74
-0.18,-0.58,0.75,2.68,-0.78,22.56
-0.19,-0.54,0.79,1.8,-0.09,21.57
-0.16,-0.56,0.78,-0.21,0.36,20.23
-0.15,-0.58,0.75,-3.04,0.48,19.51
-0.15,-0.62,0.73,-5.67,0.67,18.94
-0.15,-0.62,0.73,-5.67,0.67,18.94
-0.14,-0.65,0.7,-7.32,0.93,18.63
-0.16,-0.66,0.71,-8.03,1.14,18.85
-0.16,-0.67,0.71,-8.07,1.42,18.74
-0.13,-0.68,0.7,-7.47,1.81,18.39
-0.12,-0.68,0.7,-6.3,2.32,18.2
-0.12,-0.68,0.7,-6.3,2.32,18.2
-0.13,-0.67,0.71,-4.58,3.03,18.09
-0.16,-0.65,0.72,-2.57,3.83,17.83
-0.17,-0.64,0.73,-0.59,4.53,17.32
-0.16,-0.62,0.73,1.19,5.0,16.73
-0.17,-0.6,0.74,2.71,5.25,16.26
-0.17,-0.6,0.74,2.71,5.25,16.26
-0.18,-0.59,0.76,3.86,5.33,15.69
-0.18,-0.58,0.77,4.54,5.28,14.93
-0.18,-0.57,0.77,4.65,5.14,14.13
-0.19,-0.56,0.77,4.16,4.93,13.36
-0.19,-0.57,0.76,3.33,4.56,12.61
-0.19,-0.57,0.76,3.33,4.56,12.61
-0.19,-0.58,0.75,2.49,4.03,11.9
-0.19,-0.59,0.75,1.99,3.39,11.34
-0.19,-0.58,0.75,1.86,2.74,10.87
-0.19,-0.57,0.76,1.9,2.26,10.39
-0.19,-0.55,0.76,1.88,1.97,9.79
-0.19,-0.55,0.76,1.88,1.97,9.79
-0.18,-0.55,0.76,1.54,2.07,8.94
-0.15,-0.55,0.76,0.81,2.81,7.86
-0.13,-0.56,0.76,-0.11,4.1,6.8
-0.14,-0.57,0.75,-1.0,5.81,5.99
-0.15,-0.58,0.76,-1.74,7.76,5.36
-0.15,-0.58,0.76,-1.74,7.76,5.36
-0.16,-0.59,0.75,-2.24,9.56,4.82
-0.17,-0.59,0.75,-2.37,11.06,4.32
-0.18,-0.59,0.75,-2.03,12.09,3.86
-0.19,-0.58,0.77,-1.38,12.59,3.46
-0.19,-0.57,0.78,-0.67,12.55,3.1
-0.19,-0.57,0.78,-0.67,12.55,3.1
