ax,ay,az,gx,gy,gz
-0.06,0.04,0.99,-2.56,-1.14,0.79
-0.06,0.04,0.99,-2.56,-1.14,0.79
-0.05,0.02,0.98,-3.46,-1.58,0.61
-0.05,0.01,0.97,-3.96,-1.81,0.5
-0.04,0.01,0.97,-3.97,-1.86,0.44
-0.04,0.0,0.97,-3.52,-1.67,0.5
-0.04,0.01,0.97,-2.69,-1.22,0.67
-0.04,0.01,0.97,-2.69,-1.22,0.67
-0.04,0.02,0.97,-1.56,-0.59,0.92
-0.05,0.03,0.97,-0.27,0.11,1.22
-0.06,0.04,0.98,1.02,0.8,1.54
-0.07,0.06,0.99,2.12,1.39,1.81
-0.08,0.08,0.99,2.87,1.77,2.04
-0.08,0.08,0.99,2.87,1.77,2.04
-0.09,0.09,1.0,3.11,1.93,2.19
-0.1,0.09,1.01,2.76,1.78,2.24
-0.09,0.09,1.01,1.82,1.37,2.18
-0.09,0.07,1.0,0.48,0.71,2.02
-0.07,0.05,1.0,-0.97,-0.05,1.86
-0.07,0.05,1.0,-0.97,-0.05,1.86
-0.07,0.03,0.99,-2.27,-0.76,1.73
-0.06,0.02,0.99,-3.19,-1.25,1.6
-0.05,0.01,0.98,-3.63,-1.56,1.5
-0.05,0.0,0.97,-3.58,-1.64,1.47
-0.05,0.0,0.97,-3.07,-1.55,1.5
-0.05,0.0,0.97,-3.07,-1.55,1.5
-0.05,0.01,0.98,-2.23,-1.32,1.54
-0.04,0.02,0.98,-1.22,-0.96,1.6
-0.05,0.03,0.98,-0.21,-0.45,1.7
-0.06,0.05,0.99,0.62,0.13,1.79
-0.07,0.06,0.99,1.23,0.65,1.86
-0.07,0.06,0.99,1.23,0.65,1.86
-0.08,0.07,0.99,1.56,1.03,1.86
-0.09,0.08,1.0,1.5,1.14,1.82
-0.08,0.08,1.0,1.0,0.97,1.76
-0.08,0.07,0.99,0.13,0.55,1.7
-0.08,0.06,0.99,-0.91,-0.06,1.6
-0.08,0.06,0.99,-0.91,-0.06,1.6
-0.08,0.05,0.99,-1.92,-0.74,1.46
-0.07,0.03,0.99,-2.76,-1.41,1.29
-0.06,0.03,0.98,-3.33,-1.99,1.15
-0.05,0.02,0.98,-3.61,-2.41,1.08
-0.05,0.02,0.98,-3.57,-2.68,1.09
-0.05,0.02,0.98,-3.57,-2.68,1.09
-0.05,0.02,0.98,-3.26,-2.76,1.15
-0.05,0.03,0.97,-2.68,-2.64,1.19
-0.06,0.04,0.98,-2.0,-2.38,1.21
-0.06,0.06,0.99,-1.41,-2.06,1.2
-0.07,0.07,1.0,-1.13,-1.75,1.15
-0.07,0.07,1.0,-1.13,-1.75,1.15
-0.07,0.07,1.0,-1.29,-1.57,1.11
-0.08,0.07,0.99,-1.85,-1.55,1.08
-0.08,0.07,0.99,-2.74,-1.73,1.03
-0.08,0.06,0.99,-3.76,-2.05,0.9
-0.07,0.05,0.99,-4.76,-2.44,0.76
-0.07,0.05,0.99,-4.76,-2.44,0.76
-0.07,0.04,0.98,-5.64,-2.86,0.63
-0.06,0.03,0.98,-6.31,-3.3,0.57
-0.06,0.02,0.98,-6.74,-3.71,0.59
-0.05,0.01,0.97,-6.81,-4.03,0.63
-0.04,0.0,0.97,-6.54,-4.26,0.76
-0.04,0.0,0.97,-6.54,-4.26,0.76
-0.04,0.0,0.98,-5.9,-4.28,0.99
-0.04,0.01,0.98,-4.94,-4.06,1.31
-0.04,0.02,0.98,-3.8,-3.61,1.61
-0.04,0.02,0.99,-2.62,-2.99,1.89
-0.04,0.03,0.99,-1.52,-2.26,2.11
-0.04,0.03,0.99,-1.52,-2.26,2.11
-0.05,0.04,0.99,-0.59,-1.44,2.27
-0.05,0.05,0.99,0.15,-0.56,2.33
-0.06,0.06,0.99,0.58,0.23,2.31
-0.07,0.06,0.99,0.63,0.81,2.27
-0.08,0.06,1.0,0.33,1.07,2.16
-0.08,0.06,1.0,0.33,1.07,2.16
-0.08,0.06,1.0,-0.26,0.98,2.01
-0.07,0.06,1.0,-1.09,0.64,1.82
-0.07,0.04,1.0,-2.01,0.17,1.62
-0.06,0.03,0.99,-2.86,-0.33,1.41
-0.05,0.02,0.99,-3.5,-0.85,1.23
-0.05,0.02,0.99,-3.5,-0.85,1.23
-0.05,0.01,0.98,-3.85,-1.26,1.15
-0.05,0.01,0.98,-3.86,-1.55,1.15
-0.04,0.0,0.98,-3.52,-1.69,1.2
-0.04,0.01,0.99,-2.84,-1.59,1.29
-0.05,0.01,0.99,-1.91,-1.25,1.4
-0.05,0.01,0.99,-1.91,-1.25,1.4
-0.05,0.02,0.99,-0.88,-0.7,1.52
-0.06,0.04,1.0,0.08,-0.05,1.67
-0.07,0.05,1.0,0.86,0.6,1.82
-0.08,0.06,1.0,1.37,1.13,1.88
-0.09,0.07,1.01,1.54,1.42,1.88
-0.09,0.07,1.01,1.54,1.42,1.88
-0.09,0.07,1.01,1.3,1.42,1.86
-0.09,0.07,1.0,0.68,1.12,1.82
-0.08,0.06,1.0,-0.21,0.51,1.75
-0.07,0.04,0.99,-1.2,-0.3,1.7
-0.07,0.04,0.99,-2.09,-1.16,1.7
-0.06,0.03,0.98,-2.09,-1.16,1.7
-0.05,0.01,0.97,-2.75,-1.92,1.71
-0.04,-0.0,0.97,-3.11,-2.46,1.73
-0.04,-0.01,0.97,-3.07,-2.72,1.76
-0.03,-0.01,0.96,-2.62,-2.68,1.82
-0.03,-0.01,0.96,-1.84,-2.3,1.85
-0.03,-0.0,0.97,-1.84,-2.3,1.85
-0.04,0.01,0.97,-0.91,-1.63,1.84
-0.05,0.02,0.98,-0.01,-0.87,1.79
-0.06,0.03,0.98,0.69,-0.1,1.68
-0.07,0.04,0.98,1.11,0.57,1.54
-0.07,0.04,0.98,1.11,0.57,1.54
-0.07,0.05,0.99,1.18,1.06,1.33
-0.07,0.05,0.99,0.97,1.37,1.13
-0.07,0.05,0.98,0.56,1.44,0.98
-0.07,0.04,0.98,0.07,1.31,0.85
-0.07,0.03,0.98,-0.36,1.0,0.7
-0.07,0.03,0.98,-0.36,1.0,0.7
-0.07,0.03,0.98,-0.66,0.58,0.53
-0.06,0.03,0.98,-0.76,0.18,0.34
-0.06,0.03,0.99,-0.78,-0.16,0.18
-0.06,0.04,0.98,-0.75,-0.37,0.05
-0.06,0.04,0.98,-0.73,-0.51,-0.07
-0.06,0.04,0.98,-0.73,-0.51,-0.07
-0.06,0.04,0.98,-0.78,-0.6,-0.2
-0.05,0.04,0.98,-0.93,-0.61,-0.33
-0.05,0.04,0.97,-1.13,-0.55,-0.4
-0.04,0.04,0.97,-1.28,-0.4,-0.41
-0.04,0.03,0.96,-1.36,-0.25,-0.39
-0.04,0.03,0.96,-1.36,-0.25,-0.39
-0.04,0.03,0.96,-1.35,-0.1,-0.34
-0.04,0.03,0.96,-1.21,0.09,-0.28
-0.04,0.04,0.96,-0.99,0.26,-0.26
-0.05,0.04,0.96,-0.72,0.43,-0.27
-0.05,0.05,0.96,-0.44,0.58,-0.36
-0.05,0.05,0.96,-0.44,0.58,-0.36
-0.04,0.06,0.96,-0.31,0.77,-0.54
-0.04,0.07,0.97,-0.37,1.03,-0.82
-0.04,0.09,0.97,-0.64,1.44,-1.12
-0.04,0.1,0.97,-1.02,1.99,-1.44
-0.05,0.11,0.98,-1.46,2.7,-1.84
-0.05,0.11,0.98,-1.46,2.7,-1.84
-0.05,0.12,0.98,-1.96,3.48,-2.24
-0.05,0.13,0.98,-2.5,4.24,-2.52
-0.06,0.14,0.99,-3.0,4.96,-2.64
-0.08,0.15,0.98,-3.37,5.58,-2.59
-0.1,0.16,0.98,-3.58,6.02,-2.3
-0.1,0.16,0.98,-3.58,6.02,-2.3
-0.1,0.17,0.98,-3.6,6.21,-1.88
-0.1,0.19,0.98,-3.46,6.13,-1.33
-0.09,0.21,0.98,-3.33,5.83,-0.49
-0.09,0.24,0.98,-3.41,5.4,0.44
-0.1,0.25,0.98,-3.76,4.91,1.21
-0.1,0.25,0.98,-3.76,4.91,1.21
-0.09,0.27,0.97,-4.32,4.45,1.82
-0.08,0.29,0.96,-5.09,4.09,2.22
-0.07,0.31,0.96,-6.03,3.77,2.55
-0.06,0.33,0.95,-7.2,3.58,3.08
-0.07,0.34,0.94,-8.64,3.51,3.97
-0.07,0.34,0.94,-8.64,3.51,3.97
-0.07,0.32,0.93,-10.23,3.48,5.19
-0.07,0.3,0.92,-11.79,3.48,6.72
-0.07,0.28,0.91,-13.01,3.54,8.53
-0.06,0.26,0.9,-13.56,3.71,10.59
-0.04,0.26,0.9,-13.31,4.06,12.94
-0.04,0.26,0.9,-13.31,4.06,12.94
-0.04,0.27,0.91,-12.44,4.66,15.6
-0.05,0.27,0.91,-11.27,5.39,18.41
-0.05,0.27,0.92,-9.98,6.18,21.29
-0.05,0.27,0.93,-8.64,7.02,24.02
-0.04,0.27,0.94,-7.28,7.8,26.48
-0.04,0.27,0.94,-7.28,7.8,26.48
-0.03,0.27,0.96,-5.91,8.65,28.76
-0.02,0.28,0.98,-4.78,9.53,30.99
-0.02,0.29,0.99,-4.13,10.35,33.27
-0.04,0.29,1.0,-4.08,11.07,35.62
-0.06,0.28,1.0,-4.54,11.65,37.78
-0.06,0.28,1.0,-4.54,11.65,37.78
-0.07,0.27,1.0,-5.39,11.98,39.55
-0.07,0.25,1.01,-6.42,12.11,40.93
-0.06,0.23,1.03,-7.43,12.07,42.17
-0.06,0.2,1.03,-8.38,11.91,43.51
-0.08,0.17,1.04,-9.38,11.64,44.98
-0.08,0.17,1.04,-9.38,11.64,44.98
-0.1,0.13,1.04,-10.25,11.12,46.46
-0.1,0.09,1.03,-10.71,10.33,47.85
-0.1,0.06,1.03,-10.53,9.28,49.01
-0.06,0.06,1.05,-9.57,8.01,49.87
-0.0,0.08,1.08,-8.01,6.77,50.49
-0.0,0.08,1.08,-8.01,6.77,50.49
0.04,0.11,1.11,-6.22,5.73,50.77
0.04,0.11,1.12,-4.61,4.99,50.78
0.04,0.09,1.11,-3.3,4.33,50.71
0.04,0.06,1.1,-2.32,3.41,51.0
0.05,0.04,1.09,-1.49,2.11,51.92
0.05,0.04,1.09,-1.49,2.11,51.92
0.05,0.02,1.08,-0.62,0.62,53.37
0.06,0.01,1.06,0.51,-0.77,54.85
0.08,0.02,1.05,2.0,-2.04,56.25
0.1,0.04,1.05,3.59,-3.13,57.59
0.11,0.08,1.05,4.74,-4.21,58.83
0.11,0.08,1.05,4.74,-4.21,58.83
0.11,0.11,1.06,4.85,-5.41,60.08
0.11,0.12,1.08,3.4,-6.64,61.32
0.11,0.1,1.09,0.12,-7.86,62.39
0.13,0.06,1.08,-4.65,-8.94,63.28
0.14,-0.0,1.09,-10.21,-9.7,64.04
0.14,-0.0,1.09,-10.21,-9.7,64.04
0.14,-0.06,1.1,-15.98,-10.1,64.61
0.13,-0.11,1.08,-21.42,-9.97,65.0
0.1,-0.14,1.07,-25.93,-9.3,65.21
0.08,-0.15,1.06,-29.29,-8.3,64.99
0.08,-0.14,1.06,-31.4,-7.24,64.1
0.08,-0.14,1.06,-31.4,-7.24,64.1
0.11,-0.12,1.08,-32.45,-6.27,62.92
0.11,-0.09,1.1,-33.03,-5.37,62.03
0.09,-0.07,1.1,-33.75,-4.61,61.56
0.05,-0.08,1.09,-34.88,-4.15,61.44
0.02,-0.11,1.08,-36.37,-4.22,61.54
0.02,-0.11,1.08,-36.37,-4.22,61.54
0.0,-0.14,1.07,-37.92,-4.86,61.73
-0.01,-0.16,1.07,-39.28,-5.79,61.91
-0.03,-0.16,1.07,-40.26,-6.77,61.8
-0.02,-0.15,1.06,-40.97,-7.79,61.11
0.01,-0.15,1.06,-41.64,-8.87,59.87
0.01,-0.15,1.06,-41.64,-8.87,59.87
0.04,-0.15,1.07,-42.58,-9.97,58.41
0.04,-0.16,1.07,-43.83,-10.94,56.93
0.02,-0.18,1.06,-45.2,-11.65,55.48
0.01,-0.22,1.05,-46.59,-12.2,53.83
0.0,-0.26,1.04,-47.54,-12.55,52.18
0.0,-0.26,1.04,-47.54,-12.55,52.18
0.0,-0.3,1.03,-48.06,-12.61,50.76
-0.01,-0.34,1.03,-47.79,-12.42,49.56
-0.02,-0.35,1.04,-46.82,-11.91,48.3
-0.03,-0.35,1.02,-45.43,-11.33,46.72
-0.02,-0.34,1.01,-43.41,-10.74,44.89
-0.02,-0.34,1.01,-43.41,-10.74,44.89
-0.01,-0.32,1.03,-41.02,-10.17,42.83
-0.02,-0.29,1.05,-38.46,-9.61,40.71
-0.05,-0.26,1.06,-35.95,-8.98,38.51
-0.08,-0.24,1.06,-33.84,-8.55,36.1
-0.1,-0.24,1.07,-32.52,-8.74,33.67
-0.1,-0.24,1.07,-32.52,-8.74,33.67
-0.12,-0.25,1.07,-32.2,-9.84,31.32
-0.12,-0.28,1.05,-32.81,-11.79,29.04
-0.11,-0.31,1.03,-33.97,-14.38,26.7
-0.08,-0.33,1.01,-35.25,-17.31,24.23
-0.04,-0.35,1.0,-36.33,-20.24,21.6
-0.04,-0.35,1.0,-36.33,-20.24,21.6
-0.01,-0.36,0.98,-37.02,-22.84,18.91
0.02,-0.37,0.98,-37.23,-24.75,16.27
0.03,-0.37,0.98,-37.01,-25.82,13.7
0.02,-0.38,0.98,-36.43,-25.92,11.29
-0.02,-0.4,0.99,-35.62,-25.2,9.05
-0.02,-0.4,0.99,-35.62,-25.2,9.05
-0.05,-0.42,0.99,-34.74,-23.95,6.85
-0.08,-0.44,0.97,-33.7,-22.47,4.55
-0.09,-0.45,0.96,-32.34,-21.06,2.15
-0.09,-0.45,0.95,-30.56,-19.9,-0.31
-0.09,-0.44,0.94,-28.45,-19.05,-2.68
-0.09,-0.44,0.94,-28.45,-19.05,-2.68
-0.09,-0.41,0.96,-25.81,-18.5,-4.99
-0.07,-0.37,0.98,-23.08,-18.05,-7.57
-0.09,-0.32,1.0,-20.91,-18.09,-9.48
-0.08,-0.32,0.99,-19.63,-18.48,-12.06
-0.05,-0.37,0.98,-18.73,-19.13,-15.03
-0.05,-0.37,0.98,-18.73,-19.13,-15.03
-0.03,-0.41,0.96,-17.65,-19.53,-17.54
-0.03,-0.43,0.96,-15.95,-19.57,-19.51
-0.03,-0.42,0.95,-13.81,-19.14,-21.3
-0.04,-0.38,0.96,-11.84,-18.6,-23.25
-0.02,-0.36,0.96,-10.42,-17.93,-25.67
-0.02,-0.36,0.96,-10.42,-17.93,-25.67
-0.0,-0.35,0.97,-9.6,-16.95,-28.09
0.01,-0.34,0.98,-9.35,-15.53,-30.44
0.01,-0.33,0.99,-9.51,-13.51,-32.76
-0.02,-0.33,0.99,-10.0,-10.9,-34.9
-0.07,-0.34,1.01,-10.52,-7.85,-36.89
-0.07,-0.34,1.01,-10.52,-7.85,-36.89
-0.12,-0.36,1.02,-10.87,-4.54,-38.81
-0.16,-0.35,1.02,-11.11,-1.37,-40.72
-0.19,-0.35,1.0,-11.24,1.23,-42.66
-0.2,-0.33,1.01,-11.18,3.04,-44.52
-0.19,-0.32,1.0,-11.12,3.9,-46.42
-0.19,-0.32,1.0,-11.12,3.9,-46.42
-0.17,-0.3,1.0,-11.03,3.95,-48.18
-0.15,-0.3,1.0,-10.87,3.57,-49.58
-0.13,-0.3,1.0,-10.76,2.88,-50.63
-0.12,-0.31,1.0,-10.78,1.98,-51.21
-0.13,-0.32,1.0,-10.8,1.12,-51.36
-0.13,-0.32,1.0,-10.8,1.12,-51.36
-0.13,-0.33,0.99,-10.83,0.32,-51.57
-0.13,-0.35,0.98,-10.76,-0.33,-52.11
-0.13,-0.37,0.96,-10.28,-0.65,-52.69
-0.12,-0.39,0.95,-9.25,-0.6,-53.49
-0.1,-0.39,0.94,-7.71,-0.17,-54.69
-0.1,-0.39,0.94,-7.71,-0.17,-54.69
-0.09,-0.39,0.94,-5.68,0.7,-55.99
-0.08,-0.38,0.95,-3.22,2.09,-57.14
-0.09,-0.37,0.95,-0.71,3.73,-58.23
-0.11,-0.36,0.95,1.53,5.46,-59.28
-0.13,-0.35,0.95,3.33,7.08,-60.17
-0.13,-0.35,0.95,3.33,7.08,-60.17
-0.15,-0.35,0.95,4.53,8.3,-60.93
-0.17,-0.34,0.94,5.14,9.01,-61.36
-0.19,-0.33,0.94,5.43,9.16,-61.99
-0.18,-0.35,0.94,5.59,8.62,-63.41
-0.16,-0.35,0.94,6.03,7.93,-64.96
-0.16,-0.35,0.94,6.03,7.93,-64.96
-0.14,-0.34,0.95,6.49,7.21,-66.17
-0.14,-0.33,0.95,6.51,6.44,-66.82
-0.15,-0.32,0.95,6.19,5.77,-66.82
-0.19,-0.31,0.94,5.44,5.0,-66.68
-0.2,-0.3,0.93,4.1,3.72,-67.01
-0.2,-0.3,0.93,4.1,3.72,-67.01
-0.2,-0.3,0.93,2.57,2.09,-67.53
-0.18,-0.31,0.92,0.9,0.31,-68.2
-0.16,-0.32,0.92,-0.66,-1.41,-68.97
-0.15,-0.34,0.91,-1.93,-2.8,-69.85
-0.14,-0.35,0.9,-2.53,-3.58,-70.56
-0.14,-0.35,0.9,-2.53,-3.58,-70.56
-0.15,-0.35,0.9,-2.39,-3.65,-70.96
-0.16,-0.34,0.91,-1.82,-3.18,-71.07
-0.18,-0.34,0.91,-1.09,-2.44,-70.94
-0.21,-0.34,0.91,-0.24,-1.68,-70.78
-0.22,-0.33,0.91,0.7,-1.21,-70.88
-0.22,-0.33,0.91,0.7,-1.21,-70.88
-0.22,-0.33,0.9,1.76,-1.06,-71.1
-0.21,-0.31,0.91,2.93,-1.23,-71.3
-0.2,-0.29,0.92,4.11,-1.64,-71.49
-0.19,-0.28,0.92,5.19,-2.19,-71.5
-0.19,-0.26,0.92,6.09,-2.83,-70.92
-0.19,-0.26,0.92,6.09,-2.83,-70.92
-0.2,-0.25,0.93,6.7,-3.57,-70.04
-0.2,-0.24,0.93,7.05,-4.44,-69.4
-0.2,-0.24,0.93,7.25,-5.28,-68.89
-0.2,-0.23,0.93,7.13,-6.08,-68.27
-0.2,-0.22,0.94,6.4,-6.95,-67.63
-0.2,-0.22,0.94,6.4,-6.95,-67.63
-0.19,-0.21,0.94,4.86,-7.98,-67.05
-0.19,-0.22,0.92,2.54,-9.14,-66.34
-0.2,-0.24,0.91,-0.17,-10.27,-65.59
-0.2,-0.27,0.89,-2.54,-11.18,-65.09
-0.18,-0.27,0.86,-3.94,-11.69,-64.93
-0.18,-0.27,0.86,-3.94,-11.69,-64.93
-0.17,-0.26,0.86,-4.13,-11.78,-64.87
-0.17,-0.23,0.87,-3.52,-11.58,-64.73
-0.17,-0.2,0.86,-2.6,-11.32,-64.56
-0.16,-0.19,0.86,-1.75,-11.03,-64.32
-0.22,-0.14,0.87,-0.92,-10.91,-64.18
-0.22,-0.14,0.87,-0.92,-10.91,-64.18
-0.08,-0.2,0.9,-0.01,-10.69,-66.4
-0.1,-0.13,0.87,0.02,-9.28,-64.53
-0.2,-0.09,0.87,-1.44,-8.96,-60.15
-0.22,-0.12,0.87,-3.24,-9.37,-58.65
-0.13,-0.21,0.85,-4.2,-9.11,-60.21
-0.13,-0.21,0.85,-4.2,-9.11,-60.21
-0.12,-0.22,0.83,-4.3,-7.99,-59.76
-0.19,-0.16,0.82,-4.34,-7.18,-57.89
-0.19,-0.13,0.82,-4.32,-7.18,-57.68
-0.16,-0.1,0.83,-3.97,-7.3,-58.74
-0.11,-0.1,0.83,-3.55,-7.13,-59.79
-0.11,-0.1,0.83,-3.55,-7.13,-59.79
-0.1,-0.06,0.82,-3.28,-6.57,-59.12
-0.13,-0.01,0.83,-3.1,-5.89,-57.49
-0.16,0.04,0.85,-3.2,-5.12,-56.29
-0.17,0.06,0.86,-3.73,-4.32,-55.69
-0.17,0.08,0.85,-5.15,-3.76,-55.23
-0.17,0.08,0.85,-5.15,-3.76,-55.23
-0.16,0.08,0.83,-7.93,-3.77,-54.56
-0.15,0.06,0.82,-11.91,-4.57,-53.36
-0.13,0.02,0.82,-16.5,-6.01,-51.73
-0.11,-0.02,0.82,-20.89,-7.51,-50.0
-0.09,-0.06,0.81,-24.21,-8.45,-48.19
-0.09,-0.06,0.81,-24.21,-8.45,-48.19
-0.08,-0.09,0.81,-26.05,-8.53,-46.3
-0.07,-0.1,0.8,-26.28,-7.73,-44.36
-0.07,-0.07,0.8,-24.99,-6.24,-42.52
-0.06,-0.03,0.82,-22.58,-4.22,-41.07
-0.06,0.02,0.84,-19.6,-1.88,-40.17
-0.06,0.02,0.84,-19.6,-1.88,-40.17
-0.07,0.08,0.85,-16.59,0.64,-39.77
-0.06,0.13,0.87,-14.06,3.16,-39.72
-0.03,0.16,0.9,-12.6,5.32,-39.77
-0.01,0.17,0.92,-12.73,6.81,-39.55
0.0,0.15,0.93,-14.69,7.6,-38.85
0.0,0.15,0.93,-14.69,7.6,-38.85
-0.01,0.11,0.95,-17.91,8.04,-37.76
-0.03,0.04,0.95,-21.45,8.58,-36.35
-0.06,-0.03,0.96,-24.43,9.45,-34.79
-0.1,-0.09,0.95,-26.18,10.69,-33.13
-0.13,-0.12,0.94,-26.24,12.18,-31.44
-0.13,-0.12,0.94,-26.24,12.18,-31.44
-0.15,-0.13,0.91,-24.52,13.78,-30.0
-0.13,-0.1,0.9,-21.18,15.13,-28.92
-0.09,-0.05,0.91,-16.75,15.9,-28.07
-0.04,0.02,0.94,-12.06,16.03,-27.47
-0.0,0.08,0.97,-7.91,15.81,-27.2
-0.0,0.08,0.97,-7.91,15.81,-27.2
0.02,0.13,1.0,-4.79,15.61,-27.2
0.03,0.17,1.04,-2.91,15.67,-27.48
0.06,0.17,1.08,-2.55,16.19,-28.05
0.06,0.16,1.11,-3.64,17.26,-28.25
0.02,0.13,1.11,-5.89,18.89,-28.01
0.02,0.13,1.11,-5.89,18.89,-28.01
-0.02,0.08,1.1,-8.64,20.82,-27.69
-0.06,0.02,1.08,-11.05,22.76,-27.37
-0.09,-0.03,1.06,-12.49,24.6,-26.87
-0.14,-0.05,1.04,-12.49,26.21,-26.02
-0.16,-0.06,1.02,-11.02,27.33,-25.33
-0.16,-0.06,1.02,-11.02,27.33,-25.33
-0.14,-0.05,1.0,-8.3,27.68,-25.01
-0.12,-0.03,0.99,-4.56,27.07,-24.66
-0.08,0.01,1.01,-0.16,25.53,-24.15
-0.03,0.06,1.03,4.56,23.38,-23.73
0.01,0.11,1.04,9.22,21.11,-23.5
0.01,0.11,1.04,9.22,21.11,-23.5
0.01,0.17,1.07,13.47,18.99,-23.09
-0.01,0.23,1.1,16.81,17.03,-22.52
-0.01,0.27,1.11,18.59,15.11,-22.03
-0.01,0.28,1.11,18.27,13.07,-21.41
-0.03,0.28,1.11,15.88,10.88,-20.42
-0.03,0.28,1.11,15.88,10.88,-20.42
-0.04,0.24,1.09,11.81,8.58,-19.37
-0.03,0.17,1.07,6.73,6.19,-18.42
-0.02,0.1,1.04,1.24,3.82,-17.55
0.0,0.05,1.01,-4.07,1.56,-16.61
0.04,0.02,0.99,-8.82,-0.4,-15.18
0.04,0.02,0.99,-8.82,-0.4,-15.18
0.07,0.02,0.97,-12.85,-1.99,-13.14
0.12,0.01,0.94,-15.75,-3.06,-11.02
0.17,-0.01,0.88,-16.52,-3.16,-9.21
0.23,0.04,0.91,-14.56,-2.11,-8.49
0.29,-0.04,0.87,-10.3,-0.12,-7.44
0.29,-0.04,0.87,-10.3,-0.12,-7.44
0.25,-0.03,0.88,-2.65,3.48,-3.65
0.18,0.03,0.96,5.97,6.82,0.73
0.17,0.08,1.0,13.9,9.16,4.1
0.16,0.11,1.0,20.18,10.77,7.02
0.15,0.1,1.0,24.44,11.43,9.78
0.15,0.1,1.0,24.44,11.43,9.78
0.13,0.09,1.02,27.02,11.51,12.65
0.1,0.09,1.02,28.48,11.6,15.66
0.07,0.1,1.03,29.2,11.93,18.23
0.07,0.1,1.03,29.08,12.35,20.2
0.08,0.08,1.03,27.85,12.57,21.83
0.08,0.08,1.03,27.85,12.57,21.83
0.09,0.06,1.03,25.57,12.44,23.26
0.1,0.06,1.03,22.83,12.17,24.39
0.12,0.07,1.02,19.9,11.91,25.14
0.16,0.07,1.0,16.89,11.52,25.65
0.16,0.07,1.0,13.7,10.87,26.24
0.19,0.07,1.01,13.7,10.87,26.24
0.19,0.06,1.02,10.45,10.16,27.13
0.17,0.05,1.0,7.5,9.57,28.31
0.15,0.03,0.97,5.05,8.98,29.65
0.14,0.01,0.95,3.21,8.18,31.14
0.14,0.01,0.95,2.1,7.21,32.76
0.14,-0.01,0.96,2.1,7.21,32.76
0.14,-0.04,0.97,1.88,6.53,34.39
0.13,-0.04,0.96,2.63,6.46,35.94
0.14,-0.04,0.96,4.01,6.76,37.33
0.15,-0.04,0.97,5.62,7.22,38.71
0.15,-0.04,0.97,5.62,7.22,38.71
0.16,-0.05,0.99,7.33,7.86,40.06
0.17,-0.06,1.02,9.14,8.87,41.18
0.18,-0.06,1.03,11.05,10.26,41.88
0.23,-0.08,1.05,13.11,11.92,42.04
0.22,-0.04,1.05,15.05,14.13,43.5
0.22,-0.04,1.05,15.05,14.13,43.5
0.12,0.03,1.08,15.85,15.78,46.09
0.12,-0.03,1.04,16.28,16.35,46.53
0.16,-0.03,1.05,17.72,17.16,45.51
0.14,0.04,1.09,18.05,17.2,45.02
0.08,0.07,1.09,16.91,16.28,45.46
0.08,0.07,1.09,16.91,16.28,45.46
0.1,0.0,1.07,15.31,15.12,45.23
0.15,-0.06,1.08,14.07,14.03,44.87
0.13,-0.06,1.09,13.13,13.17,45.85
0.08,-0.06,1.08,12.62,12.51,47.32
0.07,-0.08,1.07,12.87,12.04,48.26
0.07,-0.08,1.07,12.87,12.04,48.26
0.06,-0.08,1.08,13.71,11.61,49.03
0.05,-0.05,1.09,14.54,11.04,49.81
0.04,-0.03,1.08,15.17,10.34,50.33
0.05,-0.02,1.06,15.69,9.6,50.39
0.05,0.0,1.06,16.08,8.75,50.27
0.05,0.0,1.06,16.08,8.75,50.27
0.06,0.02,1.06,16.08,7.64,50.26
0.08,0.01,1.06,15.47,6.29,50.42
0.1,-0.02,1.07,14.31,4.86,50.87
0.1,-0.06,1.07,12.75,3.65,51.77
0.11,-0.09,1.08,10.89,2.8,52.98
0.11,-0.09,1.08,10.89,2.8,52.98
0.08,-0.13,1.06,8.77,2.05,54.38
0.08,-0.19,1.04,7.46,1.62,55.05
0.08,-0.23,1.03,7.36,1.65,55.22
0.06,-0.21,1.05,8.58,1.92,55.5
0.06,-0.18,1.06,10.54,2.36,55.46
0.06,-0.18,1.06,10.54,2.36,55.46
0.07,-0.14,1.07,12.76,2.83,55.11
0.07,-0.12,1.07,14.64,3.16,54.48
