ax,ay,az,gx,gy,gz
-0.15,-0.51,0.79,8.37,-5.03,1.36
-0.13,-0.5,0.79,8.82,-4.78,0.91
-0.13,-0.5,0.79,8.82,-4.78,0.91
-0.13,-0.49,0.79,9.06,-3.89,0.53
-0.13,-0.48,0.79,8.94,-2.53,0.2
-0.14,-0.49,0.79,8.53,-1.02,-0.04
-0.15,-0.5,0.78,8.01,0.36,-0.17
-0.16,-0.51,0.78,7.61,1.36,-0.11
-0.16,-0.51,0.78,7.61,1.36,-0.11
-0.17,-0.52,0.79,7.47,1.96,0.16
-0.17,-0.53,0.78,7.64,2.07,0.55
-0.17,-0.53,0.78,8.23,1.69,1.06
-0.18,-0.54,0.78,9.17,0.94,1.66
-0.18,-0.54,0.79,10.45,-0.08,2.25
-0.18,-0.54,0.79,10.45,-0.08,2.25
-0.18,-0.53,0.79,11.94,-1.3,2.75
-0.18,-0.52,0.8,13.48,-2.62,3.18
-0.19,-0.5,0.81,14.8,-4.03,3.37
-0.2,-0.49,0.82,15.87,-5.42,3.22
-0.19,-0.48,0.83,16.57,-6.6,2.78
-0.19,-0.48,0.83,16.57,-6.6,2.78
-0.18,-0.47,0.84,16.8,-7.47,2.14
-0.17,-0.48,0.85,16.51,-7.94,1.43
-0.16,-0.5,0.85,15.75,-8.13,0.81
-0.17,-0.52,0.84,14.78,-8.12,0.27
-0.17,-0.54,0.83,14.04,-8.06,-0.2
-0.17,-0.54,0.83,14.04,-8.06,-0.2
-0.18,-0.56,0.82,13.87,-8.12,-0.65
-0.18,-0.58,0.82,14.5,-8.36,-1.06
-0.19,-0.6,0.81,16.12,-8.95,-1.33
-0.2,-0.61,0.8,18.76,-10.05,-1.54
-0.19,-0.62,0.79,22.19,-11.51,-1.94
-0.19,-0.62,0.79,22.19,-11.51,-1.94
-0.19,-0.62,0.79,26.64,-13.27,-2.34
-0.18,-0.61,0.81,31.98,-15.29,-2.51
-0.18,-0.59,0.81,37.71,-17.63,-2.63
-0.17,-0.57,0.8,43.75,-19.92,-2.83
-0.16,-0.57,0.8,50.01,-21.99,-3.19
-0.16,-0.57,0.8,50.01,-21.99,-3.19
-0.15,-0.56,0.81,56.47,-23.97,-3.6
-0.14,-0.53,0.81,63.0,-25.68,-4.05
-0.14,-0.51,0.81,69.51,-26.98,-4.56
-0.14,-0.48,0.82,75.96,-28.01,-5.12
-0.14,-0.48,0.82,82.07,-28.93,-5.76
-0.14,-0.46,0.83,82.07,-28.93,-5.76
-0.14,-0.45,0.85,87.68,-29.64,-6.66
-0.13,-0.44,0.85,92.68,-30.06,-7.88
-0.12,-0.44,0.84,97.37,-30.12,-9.39
-0.11,-0.44,0.84,102.08,-29.97,-11.12
-0.11,-0.44,0.84,106.82,-29.72,-12.93
-0.11,-0.43,0.85,106.82,-29.72,-12.93
-0.12,-0.39,0.85,111.74,-29.39,-14.7
-0.13,-0.33,0.84,116.82,-28.99,-16.46
-0.14,-0.27,0.86,121.78,-28.8,-18.16
-0.14,-0.19,0.89,126.13,-28.99,-19.68
-0.14,-0.19,0.89,126.13,-28.99,-19.68
-0.16,-0.11,0.92,129.21,-29.38,-21.01
-0.17,-0.04,0.96,130.68,-29.76,-22.39
-0.17,0.01,0.99,129.99,-30.3,-23.8
-0.16,0.05,1.01,126.73,-31.16,-25.13
-0.13,0.06,1.01,120.78,-32.24,-26.33
-0.13,0.06,1.01,120.78,-32.24,-26.33
-0.1,0.04,1.0,112.57,-33.53,-27.25
-0.06,-0.0,0.97,102.79,-34.69,-27.72
-0.02,-0.07,0.95,92.49,-35.52,-27.73
0.01,-0.13,0.93,82.64,-35.89,-27.27
0.03,-0.18,0.92,73.99,-35.62,-26.39
0.03,-0.18,0.92,73.99,-35.62,-26.39
0.03,-0.22,0.9,66.88,-34.43,-25.33
0.03,-0.25,0.88,61.61,-32.46,-24.23
0.04,-0.26,0.87,58.14,-29.88,-23.2
0.03,-0.26,0.88,56.39,-26.81,-22.29
0.03,-0.25,0.88,56.2,-23.27,-21.43
0.03,-0.25,0.88,56.2,-23.27,-21.43
0.02,-0.23,0.89,57.25,-19.37,-20.59
0.01,-0.18,0.91,59.22,-15.38,-19.65
-0.0,-0.14,0.94,61.5,-11.6,-18.6
-0.01,-0.1,0.97,63.35,-8.16,-17.45
-0.01,-0.07,0.99,64.42,-5.15,-16.06
-0.01,-0.07,0.99,64.42,-5.15,-16.06
-0.02,-0.06,1.01,64.64,-2.6,-14.35
-0.03,-0.07,1.03,63.9,-0.55,-12.39
-0.06,-0.09,1.03,62.27,0.99,-10.45
-0.08,-0.13,1.01,60.12,2.01,-8.86
-0.1,-0.17,1.0,58.09,2.44,-7.78
-0.1,-0.17,1.0,58.09,2.44,-7.78
-0.1,-0.18,0.98,56.83,2.42,-7.27
-0.09,-0.17,0.98,56.52,2.23,-7.33
-0.07,-0.16,1.0,57.06,1.9,-7.69
-0.06,-0.13,1.0,57.88,1.4,-8.02
-0.05,-0.11,0.99,58.68,0.77,-8.12
-0.05,-0.11,0.99,58.68,0.77,-8.12
-0.05,-0.1,1.0,59.48,0.09,-7.99
-0.06,-0.09,1.01,60.16,-0.45,-7.83
-0.06,-0.09,1.01,60.57,-0.69,-7.73
-0.06,-0.09,1.0,60.92,-0.69,-7.56
-0.06,-0.08,0.99,61.46,-0.54,-7.25
-0.06,-0.08,0.99,61.46,-0.54,-7.25
-0.05,-0.06,0.98,62.19,-0.24,-6.85
-0.05,-0.03,0.98,63.11,0.22,-6.38
-0.07,0.01,0.98,64.08,0.76,-5.86
-0.08,0.04,0.98,64.83,1.13,-5.42
-0.09,0.08,0.99,64.97,1.26,-4.91
-0.09,0.08,0.99,64.97,1.26,-4.91
-0.08,0.13,1.01,64.08,1.03,-3.96
-0.09,0.17,1.03,61.69,0.25,-2.67
-0.09,0.17,1.04,57.59,-1.03,-1.56
-0.08,0.14,1.02,52.01,-2.64,-0.93
-0.06,0.09,1.0,45.53,-4.46,-0.7
-0.06,0.09,1.0,45.53,-4.46,-0.7
-0.03,0.04,0.97,38.98,-6.21,-0.57
-0.01,0.01,0.96,33.16,-7.55,-0.38
0.0,-0.01,0.96,28.32,-8.32,-0.17
0.01,-0.0,0.96,24.21,-8.62,0.17
0.01,0.0,0.96,20.54,-8.4,0.53
0.01,0.0,0.96,20.54,-8.4,0.53
0.01,0.01,0.96,17.22,-7.7,0.86
0.02,-0.0,0.96,14.16,-6.67,1.12
0.03,-0.02,0.96,11.46,-5.27,1.41
0.02,-0.04,0.95,9.34,-3.57,1.82
0.0,-0.06,0.95,8.0,-1.6,2.26
0.0,-0.06,0.95,8.0,-1.6,2.26
-0.01,-0.07,0.95,7.47,0.51,2.62
-0.02,-0.07,0.96,7.69,2.57,2.91
-0.03,-0.06,0.97,8.49,4.51,3.19
-0.03,-0.05,0.99,9.62,6.24,3.48
-0.03,-0.04,1.0,10.84,7.79,3.81
-0.03,-0.04,1.0,10.84,7.79,3.81
-0.05,-0.03,1.01,11.94,9.04,4.19
-0.07,-0.03,1.01,12.83,10.01,4.54
-0.09,-0.02,1.02,13.65,10.65,4.86
-0.11,-0.02,1.03,14.35,10.84,5.09
-0.12,0.01,1.03,14.87,10.56,5.12
-0.12,0.01,1.03,14.87,10.56,5.12
-0.12,0.03,1.04,15.2,9.92,4.96
-0.12,0.05,1.06,15.06,9.05,4.58
-0.12,0.07,1.07,14.06,7.92,4.0
-0.12,0.09,1.05,12.11,6.76,3.22
-0.1,0.09,1.05,9.38,5.48,2.42
-0.1,0.09,1.05,9.38,5.48,2.42
-0.09,0.07,1.05,5.93,4.16,1.71
-0.08,0.05,1.02,2.0,2.99,1.16
-0.07,0.02,1.0,-1.8,1.98,0.75
-0.06,-0.01,0.99,-5.11,1.12,0.52
-0.05,-0.02,0.98,-7.68,0.39,0.46
-0.05,-0.02,0.98,-7.68,0.39,0.46
-0.05,-0.02,0.97,-9.29,-0.18,0.66
-0.06,-0.01,0.97,-10.08,-0.62,1.09
-0.06,0.02,0.97,-10.42,-1.02,1.48
-0.05,0.05,0.98,-10.69,-1.31,1.74
-0.04,0.08,0.99,-11.26,-1.48,1.87
-0.04,0.08,0.99,-11.26,-1.48,1.87
-0.02,0.11,1.0,-12.54,-1.41,1.9
-0.0,0.13,1.02,-14.79,-1.14,2.01
0.01,0.12,1.04,-18.23,-0.64,2.35
0.0,0.11,1.04,-22.85,-0.0,2.92
0.0,0.08,1.03,-28.35,0.68,3.63
0.0,0.08,1.03,-28.35,0.68,3.63
0.0,0.05,1.01,-34.11,1.43,4.42
0.01,0.01,1.01,-39.59,2.26,5.31
0.01,-0.02,1.0,-44.55,3.18,6.3
-0.0,-0.03,1.0,-48.83,4.25,7.34
-0.01,-0.04,1.0,-52.44,5.45,8.16
-0.01,-0.04,1.0,-52.44,5.45,8.16
-0.01,-0.03,1.02,-55.5,6.8,8.61
-0.01,-0.02,1.04,-58.29,8.05,8.96
-0.02,-0.01,1.04,-61.15,9.18,9.4
-0.04,0.01,1.06,-64.14,10.18,9.78
-0.07,0.04,1.07,-67.49,10.98,9.89
-0.07,0.04,1.07,-67.49,10.98,9.89
-0.09,0.05,1.08,-71.67,11.38,9.71
-0.1,0.05,1.08,-76.98,11.24,9.4
-0.09,0.03,1.08,-83.52,10.47,8.98
-0.07,-0.02,1.06,-90.89,9.24,8.47
-0.05,-0.07,1.04,-98.51,7.92,8.03
-0.05,-0.07,1.04,-98.51,7.92,8.03
-0.05,-0.13,1.01,-105.71,6.89,7.73
-0.05,-0.17,0.98,-111.81,5.99,7.64
-0.05,-0.2,0.96,-116.67,5.25,7.55
-0.04,-0.23,0.93,-120.09,4.77,7.38
-0.03,-0.24,0.92,-121.98,4.64,7.24
-0.03,-0.24,0.92,-121.98,4.64,7.24
-0.04,-0.24,0.92,-122.55,4.9,7.21
-0.03,-0.22,0.93,-122.27,5.44,7.17
-0.02,-0.21,0.94,-121.72,6.43,7.03
-0.01,-0.21,0.95,-121.35,7.95,6.86
0.0,-0.22,0.94,-121.4,9.95,6.76
0.0,-0.22,0.94,-121.4,9.95,6.76
0.0,-0.24,0.92,-121.75,12.31,6.82
-0.02,-0.26,0.91,-122.12,14.87,7.03
-0.06,-0.26,0.89,-122.09,17.3,7.22
-0.1,-0.25,0.89,-121.4,19.28,7.25
-0.13,-0.21,0.89,-120.17,20.45,7.03
-0.13,-0.21,0.89,-120.17,20.45,7.03
-0.13,-0.17,0.9,-118.71,20.45,6.8
-0.13,-0.14,0.92,-117.57,19.22,6.91
-0.13,-0.13,0.94,-117.16,16.91,7.47
-0.11,-0.14,0.94,-117.59,13.88,8.47
-0.09,-0.17,0.93,-118.6,10.44,9.95
-0.09,-0.17,0.93,-118.6,10.44,9.95
-0.08,-0.2,0.92,-119.72,7.09,12.01
-0.09,-0.23,0.91,-120.57,4.37,14.47
-0.1,-0.26,0.9,-120.88,2.54,16.87
-0.11,-0.27,0.89,-120.5,1.64,18.83
-0.13,-0.25,0.89,-119.31,1.46,20.33
-0.13,-0.25,0.89,-119.31,1.46,20.33
-0.16,-0.21,0.91,-117.57,1.59,21.38
-0.16,-0.17,0.92,-115.99,1.56,22.08
-0.14,-0.14,0.94,-115.35,1.22,22.62
-0.11,-0.15,0.95,-116.02,0.68,23.2
-0.09,-0.19,0.93,-117.95,-0.04,24.08
-0.09,-0.19,0.93,-117.95,-0.04,24.08
-0.08,-0.25,0.9,-120.47,-1.03,25.63
-0.08,-0.31,0.87,-122.91,-2.22,27.84
-0.11,-0.36,0.85,-124.91,-3.45,30.36
-0.14,-0.39,0.81,-125.94,-4.85,32.83
-0.15,-0.39,0.79,-125.7,-6.76,34.97
-0.15,-0.39,0.79,-125.7,-6.76,34.97
-0.14,-0.36,0.81,-124.37,-9.11,36.88
-0.12,-0.33,0.85,-123.01,-11.52,38.54
-0.1,-0.31,0.87,-122.95,-13.62,39.82
-0.08,-0.33,0.85,-124.97,-15.5,40.83
-0.06,-0.39,0.81,-128.83,-17.25,41.81
-0.06,-0.39,0.81,-128.83,-17.25,41.81
-0.03,-0.48,0.77,-133.85,-18.76,42.87
-0.02,-0.6,0.74,-139.19,-20.04,43.99
0.01,-0.72,0.69,-143.86,-21.09,45.2
0.06,-0.86,0.64,-146.78,-21.7,46.54
0.09,-0.99,0.55,-146.55,-21.37,48.2
0.09,-0.99,0.55,-146.55,-21.37,48.2
0.09,-1.07,0.5,-142.62,-20.62,50.34
0.06,-1.1,0.5,-134.99,-19.59,52.69
0.04,-1.09,0.53,-124.29,-18.31,54.48
0.03,-1.05,0.6,-111.8,-17.07,55.32
0.03,-0.99,0.66,-99.22,-16.09,55.26
0.03,-0.99,0.66,-99.22,-16.09,55.26
0.03,-0.95,0.71,-87.8,-15.45,54.63
0.02,-0.94,0.75,-78.21,-15.22,53.59
0.0,-0.94,0.77,-70.65,-15.54,52.21
-0.03,-0.95,0.77,-64.91,-16.52,50.44
-0.06,-0.97,0.76,-60.55,-18.27,48.15
-0.06,-0.97,0.76,-60.55,-18.27,48.15
-0.07,-0.99,0.75,-57.02,-20.73,45.39
-0.07,-1.01,0.75,-53.94,-23.74,42.13
-0.05,-1.03,0.74,-50.99,-26.93,38.35
-0.02,-1.04,0.72,-47.94,-30.02,34.22
0.01,-1.03,0.72,-44.65,-32.75,30.15
0.01,-1.03,0.72,-44.65,-32.75,30.15
0.03,-1.03,0.72,-41.12,-34.96,26.56
0.03,-1.03,0.72,-37.43,-36.66,23.53
0.01,-1.03,0.7,-33.56,-37.81,20.92
-0.03,-1.01,0.68,-29.23,-38.55,18.52
-0.07,-0.98,0.7,-24.49,-39.26,15.94
-0.07,-0.98,0.7,-24.49,-39.26,15.94
-0.08,-0.95,0.7,-19.78,-40.18,12.86
-0.08,-0.91,0.71,-15.5,-41.34,9.4
-0.06,-0.87,0.72,-12.02,-42.78,5.78
-0.05,-0.85,0.72,-9.65,-44.21,1.9
-0.02,-0.82,0.7,-8.38,-45.19,-2.25
-0.02,-0.82,0.7,-8.38,-45.19,-2.25
0.0,-0.81,0.68,-7.88,-45.31,-6.41
0.03,-0.8,0.68,-7.99,-44.53,-10.29
0.05,-0.8,0.67,-9.08,-42.77,-13.9
0.07,-0.83,0.62,-10.94,-40.17,-17.39
0.09,-0.89,0.57,-12.69,-36.98,-20.37
0.09,-0.89,0.57,-12.69,-36.98,-20.37
0.09,-0.94,0.52,-13.36,-33.53,-22.21
0.06,-0.97,0.49,-12.45,-30.08,-22.91
0.01,-0.95,0.5,-9.93,-26.78,-22.81
-0.05,-0.92,0.5,-6.05,-24.06,-22.54
-0.1,-0.86,0.51,-1.35,-22.22,-22.39
-0.1,-0.86,0.51,-1.35,-22.22,-22.39
-0.13,-0.81,0.54,3.52,-21.45,-22.36
-0.14,-0.76,0.58,7.81,-21.72,-22.47
-0.14,-0.71,0.61,10.76,-22.75,-22.87
-0.13,-0.7,0.61,11.94,-24.27,-23.7
-0.11,-0.72,0.6,11.26,-25.85,-25.14
-0.11,-0.72,0.6,11.26,-25.85,-25.14
-0.09,-0.76,0.57,8.99,-27.21,-27.25
-0.05,-0.81,0.53,5.89,-28.0,-29.86
-0.01,-0.84,0.49,2.85,-27.99,-32.55
0.03,-0.87,0.46,0.32,-26.72,-34.96
0.04,-0.9,0.44,-1.46,-24.26,-36.86
0.04,-0.9,0.44,-1.46,-24.26,-36.86
0.04,-0.92,0.43,-2.57,-20.97,-38.32
0.03,-0.93,0.41,-2.97,-16.96,-39.47
0.02,-0.91,0.4,-2.54,-12.57,-40.24
0.02,-0.94,0.42,-2.13,-8.23,-40.78
0.02,-0.81,0.41,-1.93,-4.3,-39.55
0.02,-0.81,0.41,-1.93,-4.3,-39.55
-0.07,-0.96,0.38,-2.12,-1.51,-36.92
-0.12,-0.99,0.36,0.69,0.23,-34.84
-0.19,-0.92,0.38,3.67,1.76,-34.11
-0.2,-0.92,0.42,6.13,0.88,-35.33
-0.13,-0.95,0.4,8.48,-0.64,-37.49
-0.13,-0.95,0.4,8.48,-0.64,-37.49
-0.11,-0.94,0.4,10.32,-1.71,-38.85
-0.11,-0.89,0.43,11.42,-2.73,-40.3
-0.09,-0.86,0.44,12.07,-2.98,-42.78
-0.05,-0.85,0.44,12.27,-2.1,-45.99
-0.02,-0.85,0.45,11.41,-0.19,-49.2
-0.02,-0.85,0.45,11.41,-0.19,-49.2
-0.01,-0.88,0.45,9.51,2.93,-51.53
-0.01,-0.92,0.43,6.62,7.09,-53.39
-0.0,-0.98,0.38,3.33,11.66,-54.84
-0.03,-1.01,0.35,0.67,16.29,-55.62
-0.05,-1.04,0.32,-0.74,20.65,-56.03
-0.05,-1.04,0.32,-0.74,20.65,-56.03
-0.06,-1.08,0.3,-0.83,24.31,-56.06
-0.07,-1.1,0.28,0.54,26.85,-55.35
-0.1,-1.09,0.27,3.7,28.14,-53.83
-0.16,-1.07,0.28,8.88,28.25,-51.86
-0.21,-1.03,0.32,15.57,27.27,-49.9
-0.21,-1.03,0.32,15.57,27.27,-49.9
-0.25,-0.97,0.38,22.53,25.23,-48.57
-0.28,-0.92,0.43,28.77,22.61,-48.52
-0.25,-0.9,0.47,33.72,20.17,-50.06
-0.19,-0.92,0.48,37.14,18.21,-52.78
-0.1,-0.95,0.48,39.09,16.69,-56.11
-0.1,-0.95,0.48,39.09,16.69,-56.11
-0.04,-0.98,0.47,40.03,16.19,-59.26
-0.02,-0.97,0.47,40.91,17.43,-62.0
-0.05,-0.95,0.48,42.16,20.61,-64.49
-0.1,-0.93,0.5,43.58,25.24,-66.79
-0.16,-0.9,0.51,44.87,30.65,-68.94
-0.16,-0.9,0.51,44.87,30.65,-68.94
-0.2,-0.87,0.51,46.1,36.2,-70.92
-0.23,-0.84,0.54,47.02,41.22,-72.59
-0.24,-0.8,0.56,47.2,45.0,-73.92
-0.22,-0.78,0.57,46.48,47.28,-74.92
-0.2,-0.78,0.59,44.91,48.4,-75.47
-0.2,-0.78,0.59,44.91,48.4,-75.47
-0.19,-0.8,0.6,42.69,48.75,-75.92
-0.19,-0.82,0.6,40.31,48.88,-76.49
-0.22,-0.83,0.57,38.39,49.21,-77.19
-0.22,-0.85,0.55,37.46,49.49,-78.42
-0.2,-0.83,0.55,37.41,49.58,-79.83
-0.2,-0.83,0.55,37.41,49.58,-79.83
-0.17,-0.8,0.58,37.75,49.35,-80.86
-0.15,-0.77,0.61,38.28,49.06,-81.41
-0.15,-0.73,0.64,38.49,48.9,-81.5
-0.18,-0.71,0.67,38.17,48.6,-81.24
-0.2,-0.7,0.68,37.21,48.09,-80.81
-0.2,-0.7,0.68,37.21,48.09,-80.81
-0.2,-0.69,0.69,35.54,46.93,-80.3
-0.18,-0.7,0.68,32.96,44.85,-79.91
-0.14,-0.72,0.67,29.47,42.04,-79.98
-0.11,-0.76,0.66,25.71,39.33,-80.24
-0.08,-0.79,0.63,22.27,37.26,-80.41
-0.08,-0.79,0.63,22.27,37.26,-80.41
-0.08,-0.81,0.61,19.57,35.8,-80.5
-0.07,-0.81,0.61,18.15,34.96,-80.64
-0.08,-0.79,0.64,17.71,34.79,-80.5
-0.09,-0.76,0.65,17.25,34.71,-80.11
-0.09,-0.75,0.65,16.4,34.28,-79.74
-0.09,-0.75,0.65,16.4,34.28,-79.74
-0.08,-0.75,0.65,15.16,33.57,-79.05
-0.1,-0.75,0.65,13.79,32.55,-77.42
-0.12,-0.73,0.64,12.63,31.3,-75.61
-0.12,-0.71,0.63,11.91,29.91,-74.79
-0.11,-0.7,0.64,11.77,28.56,-74.98
-0.11,-0.7,0.64,11.77,28.56,-74.98
-0.08,-0.71,0.64,11.84,27.37,-75.56
-0.04,-0.71,0.62,11.76,26.3,-75.82
-0.03,-0.68,0.61,11.65,25.58,-74.87
-0.02,-0.65,0.63,11.32,25.32,-73.28
-0.01,-0.66,0.64,10.81,25.4,-72.05
-0.01,-0.66,0.64,10.81,25.4,-72.05
0.01,-0.68,0.64,10.44,26.07,-71.34
0.02,-0.71,0.64,10.33,27.49,-70.51
0.0,-0.71,0.64,10.23,29.32,-68.96
-0.04,-0.7,0.64,9.87,31.22,-66.84
-0.04,-0.7,0.64,9.21,32.82,-64.84
-0.08,-0.7,0.62,9.21,32.82,-64.84
-0.09,-0.69,0.61,8.62,33.86,-63.68
-0.09,-0.67,0.61,8.49,34.31,-63.3
-0.09,-0.63,0.64,8.56,34.28,-63.27
-0.09,-0.59,0.67,8.2,33.87,-63.35
-0.09,-0.59,0.67,7.18,33.29,-63.58
-0.09,-0.55,0.69,7.18,33.29,-63.58
-0.09,-0.52,0.71,5.42,32.74,-63.93
-0.09,-0.49,0.73,2.73,32.2,-64.12
-0.09,-0.48,0.75,-1.19,31.51,-64.06
-0.08,-0.5,0.74,-6.41,30.77,-63.89
-0.08,-0.5,0.74,-6.41,30.77,-63.89
-0.06,-0.55,0.71,-12.47,30.13,-63.64
-0.04,-0.61,0.67,-18.4,29.74,-63.14
-0.04,-0.64,0.63,-23.39,29.81,-62.27
-0.03,-0.66,0.58,-26.83,30.15,-61.18
-0.04,-0.66,0.56,-28.65,30.55,-59.87
-0.04,-0.66,0.56,-28.65,30.55,-59.87
-0.06,-0.64,0.56,-29.25,30.9,-58.57
-0.07,-0.6,0.56,-29.11,31.17,-57.55
-0.06,-0.57,0.57,-28.78,31.19,-56.8
-0.04,-0.54,0.6,-28.69,30.93,-55.94
-0.04,-0.52,0.63,-29.29,30.55,-54.83
-0.04,-0.52,0.63,-29.29,30.55,-54.83
-0.04,-0.53,0.66,-30.7,30.29,-53.74
-0.05,-0.55,0.66,-32.64,30.45,-52.71
-0.06,-0.58,0.64,-34.6,30.97,-51.72
-0.07,-0.59,0.63,-36.14,31.66,-50.62
-0.08,-0.6,0.62,-37.03,32.41,-49.65
-0.08,-0.6,0.62,-37.03,32.41,-49.65
-0.06,-0.59,0.61,-37.3,32.99,-48.89
-0.06,-0.6,0.61,-37.04,33.27,-48.08
-0.05,-0.6,0.63,-36.49,33.2,-47.11
-0.09,-0.58,0.64,-36.04,32.79,-45.78
-0.1,-0.58,0.64,-35.79,31.93,-44.91
-0.1,-0.58,0.64,-35.79,31.93,-44.91
-0.1,-0.57,0.64,-35.65,30.8,-44.25
-0.11,-0.59,0.65,-35.87,29.41,-43.18
-0.13,-0.61,0.65,-36.41,27.62,-41.96
-0.08,-0.66,0.65,-36.4,25.83,-41.98
-0.03,-0.68,0.65,-35.2,24.85,-42.61
-0.03,-0.68,0.65,-35.2,24.85,-42.61
-0.0,-0.65,0.67,-33.18,25.01,-42.71
-0.04,-0.56,0.67,-31.14,26.01,-41.63
-0.09,-0.51,0.65,-29.09,27.17,-40.21
-0.1,-0.49,0.65,-26.71,28.29,-39.1
-0.1,-0.48,0.67,-24.15,29.14,-37.71
-0.1,-0.48,0.67,-24.15,29.14,-37.71
-0.09,-0.47,0.7,-21.85,29.77,-35.42
-0.1,-0.48,0.72,-20.14,30.26,-32.19
-0.11,-0.49,0.75,-19.12,30.51,-28.44
-0.12,-0.52,0.76,-18.77,30.4,-24.61
-0.14,-0.56,0.76,-18.9,29.81,-20.98
-0.14,-0.56,0.76,-18.9,29.81,-20.98
-0.14,-0.61,0.74,-18.96,28.85,-17.7
-0.15,-0.66,0.73,-18.38,27.8,-14.87
-0.15,-0.67,0.72,-16.58,26.77,-12.68
-0.16,-0.64,0.71,-13.16,25.91,-11.29
-0.19,-0.57,0.73,-8.14,25.25,-10.79
-0.19,-0.57,0.73,-8.14,25.25,-10.79
-0.2,-0.48,0.76,-2.6,24.52,-11.0
-0.2,-0.41,0.78,2.25,23.33,-11.36
-0.2,-0.35,0.83,5.61,21.54,-11.52
-0.18,-0.33,0.88,7.04,19.32,-11.33
-0.17,-0.33,0.93,6.29,17.06,-10.59
-0.17,-0.33,0.93,6.29,17.06,-10.59
-0.17,-0.38,0.94,3.52,15.23,-9.12
-0.18,-0.45,0.91,-0.41,13.87,-7.12
-0.21,-0.52,0.88,-4.21,12.9,-5.08
-0.22,-0.58,0.86,-6.86,12.28,-3.37
-0.23,-0.63,0.83,-8.0,11.75,-2.14
-0.23,-0.63,0.83,-8.0,11.75,-2.14
-0.21,-0.64,0.8,-7.44,11.09,-1.59
-0.17,-0.6,0.78,-5.12,10.18,-1.6
-0.12,-0.54,0.78,-1.67,9.1,-2.16
-0.05,-0.45,0.78,2.12,8.03,-3.41
0.0,-0.37,0.78,5.65,7.21,-5.08
0.0,-0.37,0.78,5.65,7.21,-5.08
0.05,-0.31,0.78,8.35,6.74,-6.62
0.09,-0.27,0.79,9.63,6.49,-7.32
0.11,-0.25,0.81,9.05,6.47,-6.79
0.11,-0.27,0.84,6.47,6.8,-5.04
0.09,-0.34,0.84,2.11,7.61,-2.44
0.09,-0.34,0.84,2.11,7.61,-2.44
0.07,-0.43,0.8,-3.13,8.81,0.62
0.04,-0.53,0.76,-7.88,10.18,3.9
0.04,-0.61,0.72,-11.01,11.75,7.05
0.06,-0.66,0.7,-11.76,13.52,9.7
0.09,-0.69,0.7,-9.85,15.5,11.7
0.09,-0.69,0.7,-9.85,15.5,11.7
0.13,-0.68,0.7,-5.47,17.68,13.16
0.16,-0.62,0.71,0.84,20.1,14.21
0.17,-0.53,0.74,8.1,22.49,14.69
0.17,-0.44,0.77,15.04,24.44,14.4
0.17,-0.37,0.81,20.55,25.7,13.4
0.17,-0.37,0.81,20.55,25.7,13.4
0.16,-0.31,0.87,23.92,26.55,11.75
0.14,-0.28,0.91,24.73,27.53,9.54
0.14,-0.25,0.92,22.71,28.66,6.79
0.17,-0.26,0.9,17.83,29.84,3.65
0.2,-0.32,0.9,10.89,31.17,0.88
0.2,-0.32,0.9,10.89,31.17,0.88
0.23,-0.4,0.89,3.01,32.8,-0.72
0.24,-0.49,0.88,-4.64,34.24,-0.52
0.24,-0.57,0.85,-11.14,35.21,1.53
0.2,-0.64,0.82,-15.55,35.79,5.03
0.15,-0.69,0.8,-16.93,36.09,9.2
0.15,-0.69,0.8,-16.93,36.09,9.2
0.12,-0.72,0.77,-14.87,36.22,12.89
0.13,-0.71,0.77,-9.24,36.1,15.65
0.15,-0.66,0.82,-0.55,35.87,17.99
0.15,-0.57,0.88,9.72,35.86,20.41
0.13,-0.48,0.92,19.82,35.92,22.98
0.13,-0.48,0.92,19.82,35.92,22.98
0.1,-0.39,0.95,28.55,35.76,25.47
0.08,-0.34,1.01,35.18,35.26,27.83
0.09,-0.31,1.07,38.98,34.25,30.0
0.11,-0.32,1.1,39.49,32.96,31.9
0.12,-0.37,1.09,37.01,31.7,33.77
0.12,-0.37,1.09,37.01,31.7,33.77
0.09,-0.48,1.03,32.87,30.5,35.72
0.1,-0.49,0.99,29.56,29.39,37.4
0.09,-0.47,1.05,27.05,28.56,39.06
0.07,-0.43,1.08,23.91,27.51,41.23
-0.01,-0.37,1.07,20.24,26.17,43.23
-0.01,-0.37,1.07,20.24,26.17,43.23
-0.02,-0.43,1.02,16.75,24.43,43.03
