ax,ay,az,gx,gy,gz
-0.21,-0.44,0.82,1.61,-2.0,-1.9
-0.21,-0.44,0.82,1.49,-2.48,-1.91
-0.21,-0.44,0.82,1.49,-2.48,-1.91
-0.2,-0.44,0.82,1.2,-2.74,-1.86
-0.2,-0.44,0.82,0.77,-2.69,-1.78
-0.2,-0.45,0.82,0.3,-2.34,-1.66
-0.2,-0.45,0.81,-0.13,-1.73,-1.48
-0.21,-0.46,0.81,-0.48,-0.99,-1.31
-0.21,-0.46,0.81,-0.48,-0.99,-1.31
-0.21,-0.46,0.81,-0.67,-0.2,-1.07
-0.21,-0.46,0.81,-0.71,0.46,-0.77
-0.22,-0.46,0.81,-0.61,0.93,-0.47
-0.23,-0.46,0.82,-0.45,1.15,-0.16
-0.23,-0.46,0.82,-0.29,1.17,0.07
-0.23,-0.46,0.82,-0.29,1.17,0.07
-0.23,-0.46,0.82,-0.13,1.04,0.22
-0.24,-0.46,0.83,0.0,0.73,0.24
-0.23,-0.45,0.83,0.06,0.32,0.13
-0.23,-0.46,0.84,-0.03,-0.09,-0.12
-0.22,-0.46,0.83,-0.29,-0.39,-0.46
-0.22,-0.46,0.83,-0.29,-0.39,-0.46
-0.21,-0.46,0.83,-0.75,-0.53,-0.81
-0.21,-0.47,0.83,-1.38,-0.37,-1.15
-0.21,-0.48,0.82,-2.03,0.03,-1.48
-0.21,-0.49,0.81,-2.58,0.64,-1.83
-0.21,-0.5,0.8,-2.87,1.36,-2.15
-0.21,-0.5,0.8,-2.87,1.36,-2.15
-0.21,-0.49,0.8,-2.83,2.16,-2.4
-0.21,-0.49,0.8,-2.59,3.07,-2.6
-0.22,-0.48,0.81,-2.22,4.05,-2.7
-0.22,-0.48,0.81,-1.77,4.99,-2.73
-0.24,-0.47,0.81,-1.27,5.87,-2.67
-0.24,-0.47,0.81,-1.27,5.87,-2.67
-0.24,-0.47,0.81,-0.64,6.5,-2.57
-0.25,-0.46,0.82,0.05,6.71,-2.41
-0.26,-0.46,0.82,0.68,6.41,-2.15
-0.27,-0.45,0.82,1.16,5.59,-1.83
-0.28,-0.46,0.82,1.58,4.21,-1.56
-0.28,-0.46,0.82,1.58,4.21,-1.56
-0.28,-0.46,0.81,2.03,2.32,-1.44
-0.26,-0.46,0.81,2.54,0.21,-1.48
-0.24,-0.45,0.81,3.0,-1.76,-1.65
-0.22,-0.45,0.82,3.24,-3.29,-1.94
-0.21,-0.45,0.82,3.13,-4.22,-2.28
-0.21,-0.45,0.82,3.13,-4.22,-2.28
-0.2,-0.45,0.81,2.7,-4.5,-2.57
-0.19,-0.46,0.8,2.12,-4.07,-2.83
-0.19,-0.47,0.79,1.55,-3.13,-2.99
-0.19,-0.48,0.78,1.23,-1.89,-2.99
-0.2,-0.48,0.78,1.36,-0.55,-2.83
-0.2,-0.48,0.78,1.36,-0.55,-2.83
-0.21,-0.47,0.79,1.94,0.8,-2.5
-0.22,-0.46,0.79,2.74,1.91,-2.05
-0.22,-0.44,0.8,3.55,2.67,-1.59
-0.22,-0.44,0.81,4.24,3.11,-1.13
-0.23,-0.43,0.82,4.62,3.37,-0.74
-0.23,-0.43,0.82,4.62,3.37,-0.74
-0.23,-0.42,0.82,4.59,3.39,-0.49
-0.24,-0.42,0.82,4.21,3.32,-0.41
-0.24,-0.42,0.83,3.53,3.2,-0.51
-0.23,-0.43,0.83,2.5,3.09,-0.75
-0.23,-0.44,0.82,1.24,2.99,-1.02
-0.23,-0.44,0.82,1.24,2.99,-1.02
-0.22,-0.45,0.82,-0.1,2.91,-1.29
-0.21,-0.47,0.82,-1.35,2.93,-1.51
-0.21,-0.48,0.81,-2.36,3.05,-1.64
-0.21,-0.49,0.81,-3.03,3.19,-1.63
-0.21,-0.49,0.8,-3.31,3.3,-1.51
-0.21,-0.49,0.8,-3.31,3.3,-1.51
-0.21,-0.49,0.8,-3.19,3.41,-1.33
-0.21,-0.49,0.8,-2.8,3.49,-1.14
-0.22,-0.47,0.8,-2.22,3.62,-0.99
-0.23,-0.46,0.81,-1.55,3.77,-0.95
-0.23,-0.44,0.82,-0.98,3.91,-1.03
-0.23,-0.44,0.82,-0.98,3.91,-1.03
-0.23,-0.44,0.83,-0.72,4.05,-1.19
-0.22,-0.43,0.83,-0.78,4.11,-1.37
-0.23,-0.43,0.83,-1.08,4.13,-1.54
-0.23,-0.44,0.83,-1.48,4.07,-1.67
-0.23,-0.44,0.83,-1.86,3.93,-1.78
-0.23,-0.44,0.83,-1.86,3.93,-1.78
-0.23,-0.43,0.82,-2.11,3.74,-1.89
-0.23,-0.43,0.83,-2.21,3.48,-1.99
-0.23,-0.42,0.84,-2.14,3.09,-2.06
-0.23,-0.4,0.84,-1.93,2.55,-2.05
-0.23,-0.39,0.86,-1.72,1.9,-2.02
-0.23,-0.39,0.86,-1.72,1.9,-2.02
-0.23,-0.37,0.86,-1.64,1.21,-1.97
-0.22,-0.35,0.87,-1.82,0.49,-1.91
-0.21,-0.34,0.87,-2.34,-0.25,-1.82
-0.21,-0.33,0.86,-3.07,-0.71,-1.67
-0.2,-0.33,0.87,-3.93,-0.99,-1.46
-0.2,-0.33,0.87,-3.93,-0.99,-1.46
-0.19,-0.32,0.87,-4.89,-1.05,-1.2
-0.19,-0.31,0.86,-5.83,-0.84,-0.79
-0.19,-0.3,0.87,-6.57,-0.6,-0.21
-0.18,-0.29,0.87,-7.04,-0.39,0.44
-0.17,-0.26,0.87,-7.17,-0.22,1.1
-0.17,-0.26,0.87,-7.17,-0.22,1.1
-0.16,-0.23,0.87,-6.95,-0.12,1.72
-0.15,-0.19,0.89,-6.51,-0.12,2.35
-0.15,-0.15,0.9,-6.14,-0.2,2.95
-0.15,-0.12,0.91,-6.04,-0.29,3.66
-0.15,-0.1,0.92,-6.46,-0.44,4.51
-0.15,-0.1,0.92,-6.46,-0.44,4.51
-0.15,-0.08,0.93,-7.56,-0.66,5.56
-0.15,-0.07,0.93,-9.37,-0.93,6.78
-0.14,-0.07,0.92,-11.67,-1.22,8.17
-0.13,-0.07,0.92,-14.08,-1.47,9.78
-0.12,-0.07,0.92,-16.3,-1.67,11.57
-0.12,-0.07,0.92,-16.3,-1.67,11.57
-0.12,-0.07,0.93,-18.22,-1.83,13.48
-0.12,-0.08,0.95,-19.87,-1.98,15.46
-0.13,-0.08,0.95,-21.34,-2.11,17.54
-0.14,-0.08,0.96,-22.72,-2.13,19.57
-0.14,-0.08,0.97,-24.17,-2.12,21.51
-0.14,-0.08,0.97,-24.17,-2.12,21.51
-0.14,-0.08,0.99,-25.86,-2.21,23.6
-0.14,-0.11,1.0,-28.05,-2.37,25.81
-0.15,-0.15,0.99,-30.79,-2.72,28.16
-0.15,-0.2,0.97,-33.81,-3.32,30.59
-0.14,-0.25,0.95,-36.71,-4.15,33.11
-0.14,-0.25,0.95,-36.71,-4.15,33.11
-0.12,-0.29,0.95,-39.17,-5.09,35.62
-0.1,-0.32,0.94,-41.09,-5.94,37.97
-0.09,-0.35,0.93,-42.42,-6.65,40.16
-0.08,-0.37,0.93,-43.26,-7.17,42.21
-0.08,-0.39,0.93,-43.8,-7.49,44.0
-0.08,-0.39,0.93,-43.8,-7.49,44.0
-0.09,-0.41,0.93,-44.23,-7.67,45.4
-0.09,-0.43,0.92,-44.61,-7.78,46.35
-0.1,-0.46,0.93,-45.05,-7.9,47.02
-0.12,-0.5,0.93,-45.72,-8.15,47.47
-0.13,-0.53,0.94,-46.73,-8.54,47.71
-0.13,-0.53,0.94,-46.73,-8.54,47.71
-0.14,-0.57,0.93,-47.89,-9.0,47.69
-0.15,-0.59,0.92,-48.94,-9.4,47.4
-0.18,-0.6,0.91,-49.65,-9.7,46.78
-0.21,-0.61,0.9,-49.96,-10.09,45.71
-0.23,-0.61,0.91,-49.97,-10.83,44.19
-0.23,-0.61,0.91,-49.97,-10.83,44.19
-0.22,-0.61,0.93,-49.95,-11.94,42.48
-0.22,-0.63,0.94,-50.31,-13.42,40.84
-0.22,-0.65,0.94,-51.33,-15.07,39.42
-0.23,-0.69,0.93,-52.93,-16.83,38.24
-0.25,-0.73,0.89,-54.79,-18.63,37.27
-0.25,-0.73,0.89,-54.79,-18.63,37.27
-0.25,-0.77,0.86,-56.53,-20.47,36.27
-0.24,-0.8,0.83,-57.64,-22.32,35.02
-0.23,-0.83,0.8,-57.7,-24.0,33.49
-0.21,-0.84,0.79,-56.57,-25.55,31.93
-0.21,-0.83,0.8,-54.43,-26.99,30.49
-0.21,-0.83,0.8,-54.43,-26.99,30.49
-0.21,-0.83,0.81,-51.88,-28.21,29.07
-0.22,-0.82,0.81,-49.35,-29.17,27.55
-0.21,-0.83,0.8,-47.12,-29.89,25.87
-0.22,-0.83,0.8,-45.18,-30.42,24.08
-0.24,-0.83,0.77,-43.4,-30.54,22.31
-0.24,-0.83,0.77,-43.4,-30.54,22.31
-0.24,-0.83,0.76,-41.71,-30.49,20.63
-0.23,-0.85,0.76,-40.15,-30.4,18.82
-0.22,-0.86,0.74,-38.69,-30.15,16.87
-0.21,-0.86,0.74,-37.24,-29.92,15.08
-0.23,-0.88,0.73,-35.83,-29.22,13.33
-0.23,-0.88,0.73,-35.83,-29.22,13.33
-0.23,-0.9,0.72,-34.32,-28.55,11.62
-0.23,-0.91,0.71,-32.7,-28.02,9.96
-0.23,-0.93,0.71,-30.91,-27.42,8.2
-0.25,-0.93,0.7,-28.98,-26.9,6.41
-0.27,-0.92,0.7,-27.07,-26.51,4.42
-0.27,-0.92,0.7,-27.07,-26.51,4.42
-0.28,-0.92,0.68,-25.23,-26.24,1.94
-0.29,-0.91,0.67,-23.38,-26.08,-1.12
-0.28,-0.91,0.67,-21.64,-26.03,-4.49
-0.27,-0.89,0.66,-20.07,-26.31,-7.67
-0.27,-0.89,0.66,-18.71,-26.77,-10.64
-0.27,-0.89,0.66,-18.71,-26.77,-10.64
-0.27,-0.89,0.66,-17.55,-27.38,-13.12
-0.27,-0.89,0.65,-16.61,-28.11,-15.35
-0.27,-0.9,0.63,-15.78,-28.74,-17.6
-0.26,-0.92,0.62,-14.72,-29.3,-19.63
-0.25,-0.93,0.63,-13.54,-29.8,-21.42
-0.25,-0.93,0.63,-13.54,-29.8,-21.42
-0.25,-0.93,0.64,-12.39,-30.17,-23.03
-0.22,-0.97,0.62,-11.52,-30.49,-24.63
-0.22,-0.97,0.58,-10.25,-30.81,-25.41
-0.25,-0.93,0.59,-8.59,-31.5,-25.81
-0.26,-0.92,0.58,-6.79,-32.66,-27.23
-0.26,-0.92,0.58,-6.79,-32.66,-27.23
-0.25,-0.96,0.55,-4.55,-34.22,-29.04
-0.25,-0.98,0.54,-1.51,-36.26,-30.21
-0.28,-0.94,0.55,2.22,-38.76,-30.67
-0.31,-0.89,0.58,6.27,-41.71,-31.26
-0.3,-0.86,0.61,10.03,-44.72,-32.27
-0.3,-0.86,0.61,10.03,-44.72,-32.27
-0.28,-0.84,0.62,12.65,-47.68,-33.03
-0.23,-0.82,0.6,13.61,-50.93,-33.26
-0.18,-0.81,0.58,12.93,-53.52,-33.54
-0.15,-0.8,0.58,11.58,-54.45,-33.89
-0.15,-0.8,0.58,9.67,-53.57,-34.54
-0.13,-0.8,0.56,9.67,-53.57,-34.54
-0.11,-0.81,0.52,7.06,-51.21,-35.81
-0.1,-0.83,0.47,4.24,-47.53,-37.58
-0.08,-0.86,0.43,1.65,-42.76,-39.6
-0.06,-0.89,0.4,-0.68,-37.27,-41.41
-0.06,-0.89,0.4,-0.68,-37.27,-41.41
-0.05,-0.92,0.38,-2.51,-31.46,-42.96
-0.04,-0.93,0.38,-3.67,-25.39,-44.86
-0.05,-0.94,0.36,-4.24,-19.23,-46.7
-0.09,-0.95,0.35,-4.09,-13.35,-48.06
-0.14,-0.95,0.35,-3.1,-8.11,-49.21
-0.14,-0.95,0.35,-3.1,-8.11,-49.21
-0.19,-0.95,0.37,-0.97,-3.47,-50.47
-0.23,-0.94,0.4,2.19,0.65,-51.93
-0.25,-0.92,0.44,5.86,4.06,-53.53
-0.24,-0.9,0.46,9.28,6.71,-55.19
-0.23,-0.88,0.48,11.91,8.66,-56.73
-0.23,-0.88,0.48,11.91,8.66,-56.73
-0.21,-0.83,0.5,13.48,10.25,-58.2
-0.13,-0.84,0.52,13.49,12.14,-59.42
-0.18,-0.87,0.48,12.16,14.36,-58.0
-0.22,-0.88,0.46,11.56,16.85,-57.09
-0.27,-0.79,0.5,11.6,20.83,-58.35
-0.27,-0.79,0.5,11.6,20.83,-58.35
-0.3,-0.78,0.52,10.94,24.21,-61.4
-0.29,-0.8,0.51,9.4,26.99,-64.83
-0.26,-0.82,0.49,6.95,28.97,-67.06
-0.24,-0.84,0.48,4.21,29.64,-67.86
-0.2,-0.89,0.47,2.04,29.32,-68.54
-0.2,-0.89,0.47,2.04,29.32,-68.54
-0.19,-0.94,0.45,1.08,28.59,-69.12
-0.2,-0.98,0.43,1.48,27.23,-69.64
-0.24,-0.99,0.44,3.55,25.35,-70.05
-0.27,-0.95,0.46,7.05,22.92,-70.36
-0.29,-0.9,0.51,11.23,19.87,-70.37
-0.29,-0.9,0.51,11.23,19.87,-70.37
-0.31,-0.84,0.56,15.29,16.52,-70.57
-0.29,-0.8,0.6,18.61,13.51,-71.36
-0.25,-0.78,0.6,20.71,11.21,-72.47
-0.19,-0.77,0.6,21.3,9.73,-73.64
-0.12,-0.79,0.59,20.51,9.18,-75.0
-0.12,-0.79,0.59,20.51,9.18,-75.0
-0.09,-0.81,0.58,18.9,10.13,-75.67
-0.11,-0.82,0.56,16.9,12.38,-75.69
-0.15,-0.82,0.52,14.9,15.41,-75.75
-0.19,-0.81,0.5,13.29,18.73,-76.16
-0.21,-0.8,0.5,12.06,21.89,-77.01
-0.21,-0.8,0.5,12.06,21.89,-77.01
-0.22,-0.79,0.51,10.97,24.43,-78.04
-0.19,-0.77,0.53,9.7,26.06,-79.05
-0.18,-0.78,0.54,8.08,26.78,-79.58
-0.17,-0.81,0.55,6.6,26.67,-79.76
-0.18,-0.83,0.57,5.89,25.98,-79.49
-0.18,-0.83,0.57,5.89,25.98,-79.49
-0.19,-0.85,0.59,5.82,24.58,-79.49
-0.2,-0.87,0.59,5.79,22.18,-79.39
-0.19,-0.9,0.56,5.76,18.8,-79.3
-0.18,-0.91,0.53,6.26,15.29,-79.46
-0.13,-0.89,0.49,7.52,12.67,-80.26
-0.13,-0.89,0.49,7.52,12.67,-80.26
-0.08,-0.84,0.48,9.26,11.42,-81.7
-0.04,-0.79,0.48,11.14,12.18,-83.99
0.0,-0.75,0.47,13.07,15.17,-86.5
0.02,-0.71,0.48,14.35,20.0,-88.59
0.01,-0.68,0.48,14.45,25.9,-90.53
0.01,-0.68,0.48,14.45,25.9,-90.53
-0.01,-0.67,0.49,13.23,32.38,-92.04
-0.04,-0.68,0.51,10.78,38.74,-92.95
-0.07,-0.69,0.53,7.43,44.45,-93.26
-0.11,-0.72,0.53,3.51,49.3,-93.07
-0.14,-0.73,0.53,-0.47,53.04,-92.49
-0.14,-0.73,0.53,-0.47,53.04,-92.49
-0.17,-0.76,0.51,-3.86,55.62,-91.75
-0.19,-0.76,0.51,-5.99,57.07,-90.69
-0.22,-0.74,0.52,-6.53,57.74,-89.75
-0.21,-0.71,0.53,-5.65,57.75,-89.35
-0.19,-0.67,0.56,-3.77,57.36,-89.07
-0.19,-0.67,0.56,-3.77,57.36,-89.07
-0.17,-0.62,0.59,-1.77,56.67,-88.23
-0.16,-0.59,0.61,-0.36,55.56,-86.75
-0.15,-0.56,0.63,0.46,54.56,-84.64
-0.15,-0.55,0.65,0.66,53.9,-82.03
-0.15,-0.57,0.63,0.09,53.4,-79.29
-0.15,-0.57,0.63,0.09,53.4,-79.29
-0.15,-0.62,0.6,-0.98,52.79,-76.39
-0.16,-0.68,0.55,-1.84,51.94,-73.34
-0.17,-0.72,0.5,-1.67,50.91,-70.38
-0.16,-0.73,0.49,0.22,49.82,-67.7
-0.15,-0.72,0.49,3.74,48.85,-65.38
-0.15,-0.72,0.49,3.74,48.85,-65.38
-0.15,-0.68,0.53,8.21,48.19,-63.4
-0.16,-0.62,0.56,12.9,47.96,-61.78
-0.18,-0.57,0.61,17.21,48.09,-60.69
-0.2,-0.53,0.65,20.56,48.48,-60.05
-0.22,-0.5,0.7,22.6,48.95,-59.67
-0.22,-0.5,0.7,22.6,48.95,-59.67
-0.24,-0.47,0.74,23.14,49.3,-59.41
-0.25,-0.46,0.76,22.12,49.42,-59.28
-0.25,-0.45,0.76,19.86,49.22,-59.12
-0.24,-0.46,0.74,16.85,48.54,-58.73
-0.21,-0.49,0.69,13.6,47.25,-57.86
-0.21,-0.49,0.69,13.6,47.25,-57.86
-0.2,-0.52,0.65,10.76,45.25,-56.4
-0.18,-0.52,0.61,8.98,42.74,-54.58
-0.16,-0.52,0.6,8.64,40.17,-52.8
-0.14,-0.5,0.62,9.54,38.02,-51.21
-0.13,-0.47,0.65,10.9,36.6,-49.72
-0.13,-0.47,0.65,10.9,36.6,-49.72
-0.12,-0.45,0.68,11.99,36.1,-48.3
-0.13,-0.44,0.71,12.37,36.61,-47.0
-0.14,-0.44,0.73,11.83,38.08,-45.84
-0.16,-0.46,0.75,10.25,40.37,-44.92
-0.18,-0.48,0.76,7.74,43.2,-44.3
-0.18,-0.48,0.76,7.74,43.2,-44.3
-0.19,-0.53,0.75,4.63,46.25,-44.09
-0.18,-0.58,0.74,1.42,49.28,-44.33
-0.18,-0.63,0.72,-1.37,52.08,-45.01
-0.17,-0.67,0.69,-3.12,54.59,-46.21
-0.15,-0.67,0.63,-3.12,56.73,-47.99
-0.15,-0.67,0.63,-3.12,56.73,-47.99
-0.13,-0.63,0.59,-0.75,58.33,-50.24
-0.11,-0.55,0.6,3.99,59.17,-52.5
-0.09,-0.46,0.65,10.12,59.17,-54.15
-0.08,-0.37,0.71,15.99,58.25,-54.69
-0.08,-0.3,0.76,20.38,56.46,-54.03
-0.08,-0.3,0.76,20.38,56.46,-54.03
-0.08,-0.27,0.8,22.65,54.07,-52.39
-0.1,-0.27,0.85,22.45,51.49,-49.92
-0.13,-0.3,0.86,19.84,49.13,-46.77
-0.18,-0.35,0.82,15.45,47.28,-43.29
-0.22,-0.42,0.77,10.64,46.0,-39.83
-0.22,-0.42,0.77,10.64,46.0,-39.83
-0.24,-0.48,0.71,6.9,45.28,-36.4
-0.25,-0.52,0.67,5.22,44.97,-32.85
-0.24,-0.53,0.66,5.99,44.88,-28.99
-0.24,-0.51,0.67,9.11,44.72,-24.9
-0.25,-0.46,0.68,14.0,44.33,-20.67
-0.25,-0.46,0.68,14.0,44.33,-20.67
-0.27,-0.36,0.67,20.02,43.52,-16.5
-0.29,-0.26,0.69,26.66,41.93,-12.86
-0.29,-0.18,0.74,33.15,39.36,-10.0
-0.27,-0.12,0.81,38.33,35.88,-7.59
-0.24,-0.09,0.88,41.14,31.77,-5.25
-0.24,-0.09,0.88,41.14,31.77,-5.25
-0.21,-0.09,0.93,40.89,27.35,-2.78
-0.2,-0.13,1.02,37.16,23.24,-0.27
-0.2,-0.21,1.02,29.69,19.95,1.78
-0.2,-0.33,0.95,19.59,17.38,3.35
-0.24,-0.44,0.88,9.04,15.57,5.09
-0.24,-0.44,0.88,9.04,15.57,5.09
-0.27,-0.53,0.83,-0.13,14.46,6.54
-0.29,-0.59,0.78,-6.4,14.26,7.24
-0.28,-0.62,0.74,-9.0,14.87,7.18
-0.24,-0.6,0.74,-7.97,15.94,6.71
-0.2,-0.53,0.79,-3.89,17.21,6.61
-0.2,-0.53,0.79,-3.89,17.21,6.61
-0.18,-0.43,0.85,1.86,18.4,6.99
-0.18,-0.35,0.89,7.63,19.08,7.89
-0.21,-0.29,0.9,12.46,18.99,9.51
-0.23,-0.27,0.91,15.92,17.96,11.56
-0.24,-0.28,0.91,18.09,16.06,13.45
-0.24,-0.28,0.91,18.09,16.06,13.45
-0.23,-0.3,0.9,19.47,13.61,15.03
-0.22,-0.31,0.91,20.43,10.92,16.5
-0.22,-0.32,0.92,20.99,8.36,17.87
-0.22,-0.33,0.93,21.01,5.97,19.03
-0.21,-0.36,0.93,20.54,3.89,19.96
-0.21,-0.36,0.93,20.54,3.89,19.96
-0.2,-0.37,0.91,20.12,2.38,20.65
-0.19,-0.36,0.9,20.31,1.74,21.19
-0.17,-0.32,0.9,21.14,1.86,21.56
-0.15,-0.27,0.91,22.29,2.55,21.63
-0.12,-0.22,0.94,23.41,3.51,21.57
-0.12,-0.22,0.94,23.41,3.51,21.57
-0.09,-0.22,0.98,23.74,4.48,21.76
-0.05,-0.22,0.97,23.33,5.38,23.38
-0.09,-0.15,1.0,22.24,6.04,26.91
-0.16,-0.14,1.02,19.98,6.38,28.6
-0.13,-0.26,0.98,17.44,6.47,27.27
-0.13,-0.26,0.98,17.44,6.47,27.27
-0.02,-0.39,0.94,15.17,6.51,25.95
-0.03,-0.34,0.98,12.73,5.86,28.41
-0.06,-0.28,1.01,10.08,4.65,31.38
-0.04,-0.28,0.98,7.27,3.88,32.57
-0.06,-0.28,0.98,4.21,2.95,33.86
-0.06,-0.28,0.98,4.21,2.95,33.86
-0.08,-0.29,0.97,1.02,1.9,34.79
-0.05,-0.3,0.94,-1.6,1.1,34.06
0.0,-0.33,0.95,-3.36,0.84,32.39
0.02,-0.33,0.97,-4.53,1.04,31.72
-0.01,-0.32,0.97,-5.41,1.5,31.78
-0.01,-0.32,0.97,-5.41,1.5,31.78
-0.01,-0.31,0.96,-6.04,2.01,31.32
0.02,-0.32,0.98,-6.7,2.42,30.49
0.06,-0.31,1.02,-8.13,2.66,30.84
0.04,-0.3,1.03,-10.91,2.65,33.05
0.0,-0.33,0.99,-14.43,2.42,35.63
0.0,-0.33,0.99,-14.43,2.42,35.63
-0.01,-0.43,0.91,-17.35,1.92,37.23
0.01,-0.52,0.86,-18.31,1.26,38.21
0.05,-0.54,0.88,-17.03,0.71,39.33
0.05,-0.45,0.94,-14.28,0.46,41.14
0.04,-0.39,0.97,-11.43,0.35,42.71
0.04,-0.39,0.97,-11.43,0.35,42.71
0.07,-0.36,0.97,-8.98,0.27,43.6
0.08,-0.34,0.99,-7.31,0.24,44.7
0.08,-0.33,1.0,-6.44,0.21,45.98
0.08,-0.34,1.0,-6.24,0.16,47.28
0.09,-0.37,1.01,-6.68,0.01,48.75
0.09,-0.37,1.01,-6.68,0.01,48.75
0.09,-0.4,1.0,-7.54,-0.16,50.44
0.07,-0.44,1.0,-8.56,-0.26,52.23
0.04,-0.47,1.0,-9.51,-0.34,54.01
0.02,-0.49,0.99,-10.16,-0.47,55.54
0.0,-0.5,1.0,-10.48,-0.67,56.72
0.0,-0.5,1.0,-10.48,-0.67,56.72
-0.02,-0.5,0.99,-10.33,-0.9,57.65
-0.02,-0.5,0.99,-9.63,-1.13,58.35
-0.01,-0.48,1.01,-8.47,-1.31,58.86
-0.02,-0.45,1.01,-7.15,-1.39,59.33
-0.03,-0.42,1.02,-6.1,-1.55,59.8
-0.03,-0.42,1.02,-6.1,-1.55,59.8
-0.03,-0.4,1.02,-5.68,-2.02,60.14
-0.02,-0.4,1.01,-5.93,-2.87,60.52
-0.02,-0.42,0.98,-6.66,-4.1,61.09
-0.03,-0.44,0.96,-7.5,-5.65,61.76
-0.02,-0.45,0.93,-7.93,-7.44,62.47
-0.02,-0.45,0.93,-7.93,-7.44,62.47
-0.02,-0.45,0.93,-7.78,-9.3,63.24
-0.02,-0.45,0.95,-7.18,-10.9,63.9
-0.04,-0.43,0.97,-6.39,-12.15,64.47
-0.05,-0.44,0.98,-5.72,-12.97,64.93
-0.08,-0.39,0.99,-5.16,-13.5,65.56
-0.08,-0.39,0.99,-5.16,-13.5,65.56
-0.04,-0.49,1.02,-5.04,-13.67,65.79
-0.1,-0.38,1.05,-5.68,-13.56,67.42
-0.15,-0.45,1.02,-7.73,-13.45,67.65
-0.1,-0.57,0.93,-9.44,-13.67,66.75
-0.11,-0.62,0.92,-9.88,-14.51,67.8
-0.11,-0.62,0.92,-9.88,-14.51,67.8
-0.15,-0.56,0.96,-8.81,-15.73,69.3
-0.13,-0.52,0.99,-7.6,-17.21,69.31
-0.11,-0.5,1.02,-7.45,-19.27,69.51
-0.09,-0.51,1.01,-8.67,-21.46,69.99
-0.1,-0.53,0.97,-10.75,-23.57,70.23
-0.1,-0.53,0.97,-10.75,-23.57,70.23
-0.11,-0.58,0.92,-13.04,-25.62,70.21
-0.13,-0.62,0.89,-15.13,-27.54,70.24
-0.13,-0.66,0.87,-16.96,-29.22,70.05
-0.14,-0.71,0.85,-18.24,-30.49,69.62
-0.15,-0.74,0.82,-18.83,-31.42,69.0
-0.15,-0.74,0.82,-18.83,-31.42,69.0
-0.18,-0.76,0.8,-18.63,-31.83,67.89
-0.19,-0.77,0.79,-17.78,-31.85,65.99
-0.17,-0.76,0.8,-16.57,-31.87,63.82
-0.15,-0.75,0.8,-15.42,-31.99,61.89
-0.16,-0.74,0.8,-14.64,-32.12,60.23
-0.16,-0.74,0.8,-14.64,-32.12,60.23
-0.17,-0.74,0.78,-14.38,-32.3,58.68
-0.19,-0.75,0.76,-14.48,-32.52,57.23
-0.19,-0.76,0.74,-14.74,-32.83,55.92
-0.21,-0.75,0.74,-15.12,-33.19,54.66
-0.22,-0.78,0.72,-15.64,-33.61,53.2
-0.22,-0.78,0.72,-15.64,-33.61,53.2
-0.24,-0.79,0.7,-16.0,-33.9,51.88
-0.24,-0.8,0.69,-16.23,-34.01,50.48
-0.24,-0.81,0.67,-16.15,-33.93,49.22
-0.25,-0.8,0.67,-15.74,-33.8,48.32
-0.26,-0.82,0.65,-15.06,-33.51,47.1
-0.26,-0.82,0.65,-15.06,-33.51,47.1
-0.28,-0.82,0.64,-13.9,-33.2,45.92
-0.28,-0.82,0.62,-12.23,-32.96,44.48
-0.28,-0.8,0.63,-9.96,-32.85,43.18
-0.27,-0.77,0.64,-7.67,-32.81,41.83
-0.26,-0.75,0.65,-5.6,-32.71,40.48
-0.26,-0.75,0.65,-5.6,-32.71,40.48
-0.25,-0.75,0.64,-4.01,-32.48,39.03
-0.24,-0.72,0.65,-2.74,-32.23,37.62
-0.22,-0.71,0.65,-1.98,-31.89,35.99
-0.21,-0.72,0.65,-1.63,-31.44,34.57
-0.21,-0.71,0.64,-1.55,-30.81,33.33
-0.21,-0.71,0.64,-1.55,-30.81,33.33
-0.21,-0.71,0.64,-1.6,-29.96,32.02
-0.2,-0.7,0.64,-1.58,-28.96,30.73
-0.2,-0.69,0.64,-1.54,-27.83,29.44
-0.19,-0.68,0.64,-1.43,-26.61,28.05
-0.18,-0.68,0.64,-1.39,-25.26,26.57
-0.18,-0.68,0.64,-1.39,-25.26,26.57
-0.18,-0.66,0.65,-1.33,-23.74,25.12
-0.18,-0.65,0.65,-1.35,-22.01,23.65
-0.18,-0.64,0.65,-1.43,-20.17,22.19
-0.19,-0.63,0.66,-1.47,-18.35,20.81
-0.19,-0.62,0.66,-1.41,-16.6,19.4
-0.19,-0.62,0.66,-1.41,-16.6,19.4
-0.18,-0.61,0.67,-1.19,-15.01,18.12
-0.18,-0.59,0.69,-0.93,-13.7,17.26
-0.19,-0.57,0.71,-0.66,-12.77,16.94
-0.2,-0.57,0.72,-0.61,-12.36,16.95
-0.21,-0.57,0.73,-0.96,-12.49,17.11
-0.21,-0.57,0.73,-0.96,-12.49,17.11
