ax,ay,az,gx,gy,gz
-0.04,0.03,0.99,0.95,0.31,-0.05
-0.04,0.03,0.99,0.95,0.31,-0.05
-0.04,0.04,0.99,1.24,0.19,0.05
-0.04,0.04,0.99,1.47,0.03,0.18
-0.04,0.04,0.99,1.63,-0.17,0.33
-0.04,0.05,0.99,1.64,-0.43,0.47
-0.04,0.05,0.99,1.5,-0.71,0.63
-0.04,0.05,0.99,1.5,-0.71,0.63
-0.04,0.05,0.99,1.2,-1.01,0.73
-0.04,0.05,0.98,0.75,-1.32,0.8
-0.03,0.04,0.98,0.21,-1.62,0.85
-0.03,0.04,0.98,-0.36,-1.87,0.89
-0.02,0.03,0.97,-0.85,-1.97,0.93
-0.02,0.03,0.97,-0.85,-1.97,0.93
-0.02,0.02,0.97,-1.19,-1.9,0.99
-0.02,0.02,0.96,-1.34,-1.63,1.05
-0.02,0.02,0.96,-1.32,-1.34,1.1
-0.02,0.02,0.97,-1.15,-1.04,1.17
-0.02,0.03,0.97,-0.91,-0.79,1.28
-0.02,0.03,0.97,-0.91,-0.79,1.28
-0.03,0.03,0.97,-0.66,-0.56,1.41
-0.02,0.03,0.97,-0.42,-0.36,1.47
-0.02,0.03,0.98,-0.15,-0.13,1.56
-0.02,0.03,0.98,0.13,0.13,1.66
-0.03,0.03,0.98,0.41,0.49,1.77
-0.03,0.03,0.98,0.41,0.49,1.77
-0.03,0.04,0.99,0.68,0.95,1.88
-0.04,0.04,1.0,0.89,1.42,1.95
-0.05,0.04,1.0,1.01,1.87,2.02
-0.05,0.04,1.0,1.02,2.24,2.04
-0.05,0.04,1.0,0.96,2.48,2.11
-0.05,0.04,1.0,0.96,2.48,2.11
-0.05,0.04,1.0,0.86,2.57,2.24
-0.06,0.04,1.0,0.72,2.52,2.4
-0.06,0.04,1.0,0.54,2.29,2.53
-0.05,0.03,1.0,0.33,1.91,2.63
-0.04,0.02,1.0,0.13,1.45,2.74
-0.04,0.02,1.0,0.13,1.45,2.74
-0.04,0.02,1.0,0.02,1.08,2.86
-0.03,0.01,0.99,-0.01,0.86,2.98
-0.03,0.01,0.99,0.09,0.73,3.08
-0.03,0.01,0.99,0.28,0.64,3.15
-0.03,0.02,1.0,0.5,0.6,3.17
-0.03,0.02,1.0,0.5,0.6,3.17
-0.03,0.02,1.0,0.68,0.61,3.11
-0.04,0.03,1.0,0.78,0.71,3.02
-0.04,0.04,1.0,0.73,0.84,2.88
-0.04,0.04,1.0,0.43,0.85,2.74
-0.04,0.03,1.0,-0.09,0.81,2.61
-0.04,0.03,1.0,-0.09,0.81,2.61
-0.04,0.02,0.99,-0.7,0.68,2.48
-0.04,0.02,0.99,-1.24,0.57,2.35
-0.04,0.01,0.99,-1.56,0.45,2.23
-0.04,0.0,0.99,-1.62,0.36,2.08
-0.04,0.01,0.98,-1.42,0.26,1.93
-0.04,0.01,0.98,-1.42,0.26,1.93
-0.04,0.01,0.99,-1.04,0.19,1.83
-0.04,0.02,0.99,-0.54,0.13,1.77
-0.05,0.03,0.99,-0.02,0.06,1.73
-0.05,0.04,0.99,0.44,-0.03,1.66
-0.05,0.04,1.0,0.7,-0.17,1.56
-0.05,0.04,1.0,0.7,-0.17,1.56
-0.05,0.05,1.0,0.7,-0.36,1.38
-0.04,0.05,1.0,0.42,-0.58,1.15
-0.03,0.04,0.99,-0.08,-0.79,0.96
-0.03,0.04,0.99,-0.69,-0.9,0.82
-0.03,0.03,0.98,-1.27,-0.93,0.72
-0.03,0.03,0.98,-1.27,-0.93,0.72
-0.03,0.02,0.98,-1.74,-0.88,0.66
-0.02,0.01,0.97,-2.01,-0.78,0.63
-0.02,0.01,0.97,-2.01,-0.64,0.66
-0.02,0.01,0.97,-1.7,-0.45,0.71
-0.02,0.01,0.97,-1.13,-0.16,0.8
-0.02,0.01,0.97,-1.13,-0.16,0.8
-0.03,0.02,0.98,-0.41,0.14,0.9
-0.04,0.04,0.98,0.31,0.46,0.96
-0.05,0.05,0.99,0.88,0.74,0.96
-0.05,0.06,0.99,1.16,0.91,0.9
-0.05,0.07,1.0,1.08,0.97,0.85
-0.05,0.07,1.0,1.08,0.97,0.85
-0.05,0.06,1.0,0.69,0.88,0.83
-0.05,0.06,0.99,0.06,0.71,0.77
-0.05,0.04,0.99,-0.67,0.43,0.73
-0.04,0.03,0.99,-1.36,0.12,0.67
-0.03,0.02,0.98,-1.91,-0.14,0.61
-0.03,0.02,0.98,-1.91,-0.14,0.61
-0.03,0.01,0.98,-2.23,-0.35,0.57
-0.03,0.01,0.98,-2.27,-0.46,0.49
-0.03,0.01,0.97,-2.01,-0.46,0.41
-0.03,0.02,0.98,-1.56,-0.35,0.31
-0.03,0.03,0.98,-1.04,-0.17,0.19
-0.03,0.03,0.98,-1.04,-0.17,0.19
-0.04,0.04,0.99,-0.59,0.04,0.06
-0.04,0.04,1.0,-0.35,0.23,-0.11
-0.04,0.05,0.99,-0.38,0.33,-0.26
-0.04,0.04,0.99,-0.69,0.32,-0.34
-0.04,0.03,0.99,-1.11,0.23,-0.39
-0.04,0.03,0.99,-1.11,0.23,-0.39
-0.04,0.03,0.99,-1.49,0.11,-0.44
-0.04,0.03,0.99,-1.76,0.07,-0.5
-0.04,0.02,0.99,-1.89,0.06,-0.49
-0.04,0.02,0.99,-1.88,0.07,-0.41
-0.04,0.02,0.99,-1.7,0.16,-0.28
-0.04,0.02,0.99,-1.7,0.16,-0.28
-0.04,0.02,0.99,-1.41,0.29,-0.11
-0.04,0.02,0.99,-1.01,0.39,0.07
-0.04,0.03,0.99,-0.53,0.53,0.18
-0.05,0.04,0.99,-0.05,0.68,0.25
-0.05,0.04,1.0,0.34,0.78,0.31
-0.05,0.04,1.0,0.34,0.78,0.31
-0.05,0.04,1.0,0.52,0.77,0.34
-0.05,0.04,0.99,0.5,0.61,0.38
-0.05,0.04,0.99,0.36,0.31,0.37
-0.05,0.04,0.99,0.15,-0.03,0.34
-0.04,0.04,0.99,-0.05,-0.3,0.29
-0.04,0.04,0.99,-0.05,-0.3,0.29
-0.04,0.04,0.99,-0.27,-0.45,0.19
-0.04,0.04,0.99,-0.53,-0.52,0.11
-0.04,0.03,0.99,-0.84,-0.57,0.06
-0.04,0.03,0.99,-1.11,-0.61,0.08
-0.04,0.03,0.98,-1.27,-0.6,0.12
-0.04,0.03,0.98,-1.27,-0.6,0.12
-0.04,0.03,0.98,-1.27,-0.52,0.18
-0.04,0.03,0.98,-1.1,-0.35,0.25
-0.04,0.04,0.98,-0.82,-0.02,0.29
-0.04,0.04,0.99,-0.53,0.34,0.37
-0.05,0.05,0.99,-0.35,0.63,0.47
-0.05,0.05,0.99,-0.35,0.63,0.47
-0.06,0.05,0.99,-0.33,0.82,0.57
-0.06,0.05,0.98,-0.41,0.86,0.68
-0.06,0.05,0.98,-0.51,0.71,0.79
-0.05,0.05,0.98,-0.58,0.49,0.9
-0.05,0.04,0.98,-0.63,0.19,1.05
-0.05,0.04,0.98,-0.63,0.19,1.05
-0.05,0.05,0.98,-0.76,-0.14,1.2
-0.04,0.04,0.97,-0.95,-0.48,1.36
-0.03,0.05,0.97,-1.14,-0.74,1.5
-0.03,0.05,0.98,-1.32,-0.87,1.61
-0.02,0.05,0.98,-1.52,-0.8,1.72
-0.02,0.05,0.98,-1.52,-0.8,1.72
-0.02,0.05,0.97,-1.72,-0.58,1.78
-0.02,0.05,0.97,-1.87,-0.26,1.84
-0.03,0.05,0.97,-1.96,0.14,1.9
-0.04,0.05,0.97,-1.97,0.62,1.95
-0.04,0.06,0.97,-1.94,1.11,1.98
-0.04,0.06,0.97,-1.94,1.11,1.98
-0.04,0.07,0.97,-1.82,1.58,2.03
-0.04,0.08,0.97,-1.59,2.03,2.05
-0.04,0.1,0.98,-1.3,2.51,2.06
-0.03,0.12,0.98,-0.98,2.94,2.09
-0.03,0.12,0.98,-0.73,3.34,2.06
-0.03,0.15,0.98,-0.73,3.34,2.06
-0.02,0.18,0.99,-0.64,3.65,1.95
-0.0,0.21,0.99,-0.85,3.81,1.83
0.01,0.23,0.99,-1.38,3.86,1.81
0.01,0.25,0.98,-2.14,3.87,1.89
0.01,0.25,0.98,-3.11,3.89,2.07
0.01,0.27,0.98,-3.11,3.89,2.07
0.01,0.28,0.97,-4.26,3.89,2.44
0.0,0.3,0.96,-5.45,3.92,3.02
-0.0,0.31,0.95,-6.52,3.98,3.76
-0.01,0.34,0.94,-7.37,4.13,4.63
-0.01,0.34,0.94,-7.37,4.13,4.63
-0.02,0.36,0.93,-7.96,4.39,5.65
-0.04,0.38,0.93,-8.35,4.73,6.9
-0.04,0.39,0.93,-8.49,5.1,8.36
-0.03,0.39,0.94,-8.67,5.47,10.2
-0.02,0.39,0.95,-8.96,5.82,12.82
-0.02,0.39,0.95,-8.96,5.82,12.82
-0.03,0.38,0.95,-9.4,6.35,16.18
-0.06,0.35,0.94,-9.76,7.02,19.87
-0.07,0.32,0.92,-9.71,7.66,23.64
-0.08,0.3,0.91,-9.03,8.14,27.42
-0.08,0.31,0.92,-7.71,8.4,31.08
-0.08,0.31,0.92,-7.71,8.4,31.08
-0.07,0.33,0.92,-6.03,8.47,34.55
-0.07,0.34,0.93,-4.41,8.34,37.87
-0.06,0.35,0.94,-3.3,8.04,41.09
-0.05,0.35,0.95,-2.91,7.64,44.24
-0.04,0.33,0.95,-3.26,7.25,47.3
-0.04,0.33,0.95,-3.26,7.25,47.3
-0.02,0.29,0.95,-4.14,6.95,50.36
-0.0,0.25,0.96,-5.37,6.83,53.48
0.02,0.21,0.96,-6.67,7.05,56.66
0.04,0.17,0.98,-7.77,7.63,59.78
0.07,0.14,0.99,-8.39,8.63,62.63
0.07,0.14,0.99,-8.39,8.63,62.63
0.09,0.12,0.99,-8.33,10.08,65.12
0.1,0.11,1.0,-7.39,11.95,67.15
0.09,0.11,1.0,-5.53,14.09,68.74
0.07,0.12,1.0,-3.01,16.16,70.1
0.05,0.13,1.01,-0.21,17.79,71.4
0.05,0.13,1.01,-0.21,17.79,71.4
0.04,0.13,1.02,2.4,18.77,72.79
0.03,0.12,1.03,4.43,19.01,74.19
0.02,0.1,1.03,5.93,18.63,75.62
0.02,0.08,1.04,7.07,17.93,77.01
0.01,0.08,1.05,7.91,17.13,78.25
0.01,0.08,1.05,7.91,17.13,78.25
0.01,0.1,1.07,8.42,16.34,79.13
0.02,0.12,1.08,8.3,15.63,79.57
0.02,0.13,1.09,7.15,14.87,79.71
0.02,0.13,1.09,4.84,13.88,79.71
0.02,0.1,1.09,1.42,12.61,79.6
0.02,0.1,1.09,1.42,12.61,79.6
0.03,0.06,1.09,-2.91,11.13,79.51
0.04,0.02,1.08,-7.68,9.62,79.46
0.05,-0.03,1.07,-12.25,8.29,79.51
0.05,-0.07,1.05,-16.2,7.21,79.49
0.05,-0.1,1.05,-19.3,6.48,79.38
0.05,-0.1,1.05,-19.3,6.48,79.38
0.05,-0.11,1.03,-21.47,6.08,79.19
0.05,-0.11,1.03,-22.74,5.94,78.84
0.06,-0.11,1.04,-23.27,6.07,78.29
0.07,-0.11,1.04,-23.26,6.52,77.7
0.06,-0.1,1.06,-22.99,7.24,77.24
0.06,-0.1,1.06,-22.99,7.24,77.24
0.04,-0.09,1.09,-22.73,8.25,76.97
0.01,-0.08,1.12,-22.62,9.56,76.72
-0.04,-0.07,1.14,-22.83,11.13,76.32
-0.07,-0.06,1.14,-23.57,12.65,75.62
-0.09,-0.06,1.14,-24.89,13.73,74.61
-0.09,-0.06,1.14,-24.89,13.73,74.61
-0.08,-0.07,1.14,-26.67,14.14,73.42
-0.07,-0.07,1.14,-28.75,13.85,72.14
-0.06,-0.08,1.13,-31.0,12.96,70.81
-0.04,-0.1,1.12,-33.21,11.49,69.4
-0.05,-0.12,1.1,-35.22,9.73,68.02
-0.05,-0.12,1.1,-35.22,9.73,68.02
-0.05,-0.14,1.09,-37.18,7.53,66.72
-0.05,-0.17,1.06,-39.01,5.04,65.54
-0.05,-0.2,1.05,-40.41,2.46,64.36
-0.05,-0.22,1.04,-41.19,0.06,62.98
-0.07,-0.23,1.05,-41.23,-1.91,61.3
-0.07,-0.23,1.05,-41.23,-1.91,61.3
-0.09,-0.22,1.06,-40.62,-3.3,59.24
-0.11,-0.19,1.07,-39.51,-4.04,56.74
-0.12,-0.16,1.09,-38.6,-4.48,53.83
-0.13,-0.13,1.11,-38.52,-5.02,50.74
-0.14,-0.14,1.11,-39.59,-5.84,47.87
-0.14,-0.14,1.11,-39.59,-5.84,47.87
-0.14,-0.18,1.09,-41.77,-7.2,45.39
-0.15,-0.22,1.07,-44.57,-9.05,43.34
-0.14,-0.27,1.04,-47.21,-11.25,41.72
-0.12,-0.3,1.03,-49.12,-13.77,40.17
-0.09,-0.34,1.02,-49.94,-16.25,38.45
-0.09,-0.34,1.02,-49.94,-16.25,38.45
-0.07,-0.37,1.01,-49.45,-18.38,36.65
-0.07,-0.38,1.0,-47.84,-20.07,35.11
-0.09,-0.38,0.99,-45.42,-21.5,33.85
-0.11,-0.37,0.99,-42.35,-22.83,32.6
-0.14,-0.37,0.99,-38.9,-24.23,31.12
-0.14,-0.37,0.99,-38.9,-24.23,31.12
-0.14,-0.36,1.0,-35.41,-25.87,29.27
-0.13,-0.37,1.01,-32.27,-27.75,27.08
-0.11,-0.37,1.02,-29.76,-29.85,24.75
-0.09,-0.36,1.02,-27.98,-32.02,22.2
-0.06,-0.36,1.03,-27.01,-34.18,19.2
-0.06,-0.36,1.03,-27.01,-34.18,19.2
-0.02,-0.37,1.02,-26.7,-36.14,15.81
0.01,-0.4,1.01,-26.46,-37.31,12.45
0.01,-0.42,1.04,-25.95,-37.52,9.19
0.0,-0.43,1.05,-25.77,-36.91,6.11
-0.01,-0.43,1.03,-25.64,-35.49,3.02
-0.01,-0.43,1.03,-25.64,-35.49,3.02
-0.02,-0.46,1.02,-24.74,-33.2,-0.37
-0.02,-0.48,1.06,-22.86,-30.2,-4.32
-0.06,-0.44,1.07,-21.59,-27.12,-7.55
-0.09,-0.4,1.05,-21.21,-24.92,-10.13
-0.09,-0.42,1.04,-21.03,-23.24,-12.98
-0.09,-0.42,1.04,-21.03,-23.24,-12.98
-0.08,-0.45,1.05,-20.67,-21.94,-15.98
-0.08,-0.48,1.04,-20.14,-21.01,-18.8
-0.08,-0.48,1.03,-19.12,-20.27,-21.32
-0.1,-0.47,1.04,-17.42,-19.57,-23.62
-0.11,-0.45,1.05,-15.5,-18.93,-25.85
-0.11,-0.45,1.05,-15.5,-18.93,-25.85
-0.12,-0.42,1.07,-13.86,-18.4,-28.05
-0.14,-0.39,1.07,-12.82,-18.05,-30.42
-0.15,-0.36,1.08,-12.53,-17.91,-33.14
-0.15,-0.35,1.08,-13.19,-17.98,-36.18
-0.15,-0.34,1.08,-14.98,-18.28,-39.38
-0.15,-0.34,1.08,-14.98,-18.28,-39.38
-0.15,-0.35,1.07,-17.8,-18.8,-42.67
-0.15,-0.37,1.06,-21.28,-19.37,-45.87
-0.15,-0.39,1.05,-24.95,-19.79,-48.84
-0.15,-0.42,1.03,-28.37,-19.96,-51.6
-0.16,-0.46,1.01,-31.13,-19.8,-54.25
-0.16,-0.46,1.01,-31.13,-19.8,-54.25
-0.16,-0.49,0.97,-32.84,-19.37,-56.87
-0.15,-0.51,0.95,-33.15,-18.79,-59.39
-0.13,-0.51,0.94,-31.92,-18.1,-61.65
-0.11,-0.51,0.94,-29.43,-17.33,-63.57
-0.11,-0.49,0.95,-26.07,-16.41,-65.16
-0.11,-0.49,0.95,-26.07,-16.41,-65.16
-0.13,-0.47,0.96,-22.14,-15.28,-66.6
-0.16,-0.44,0.96,-17.65,-13.85,-68.05
-0.2,-0.4,0.98,-12.79,-12.21,-69.59
-0.22,-0.36,1.0,-8.11,-10.68,-71.13
-0.23,-0.32,1.01,-4.17,-9.46,-72.62
-0.23,-0.32,1.01,-4.17,-9.46,-72.62
-0.22,-0.29,1.02,-1.22,-8.63,-73.98
-0.21,-0.28,1.02,0.78,-8.14,-75.2
-0.2,-0.28,1.01,1.98,-7.92,-76.32
-0.19,-0.29,1.0,2.7,-7.82,-77.41
-0.18,-0.3,0.99,3.2,-7.75,-78.42
-0.18,-0.3,0.99,3.2,-7.75,-78.42
-0.18,-0.3,0.98,3.65,-7.66,-79.31
-0.17,-0.3,0.96,4.05,-7.6,-80.11
-0.16,-0.3,0.95,4.45,-7.63,-80.79
-0.14,-0.3,0.95,4.78,-7.78,-81.17
-0.13,-0.29,0.95,4.92,-7.99,-81.18
-0.13,-0.29,0.95,4.92,-7.99,-81.18
-0.13,-0.29,0.95,4.83,-8.27,-80.89
-0.13,-0.29,0.94,4.57,-8.59,-80.43
-0.13,-0.29,0.93,4.24,-8.93,-79.95
-0.12,-0.28,0.92,3.96,-9.24,-79.53
-0.11,-0.27,0.92,3.81,-9.47,-79.41
-0.11,-0.27,0.92,3.81,-9.47,-79.41
-0.1,-0.27,0.92,3.69,-9.6,-79.55
-0.09,-0.26,0.92,3.35,-9.62,-79.8
-0.09,-0.25,0.91,2.73,-9.57,-80.11
-0.09,-0.25,0.91,1.85,-9.4,-80.53
-0.09,-0.25,0.9,0.69,-9.07,-81.04
-0.09,-0.25,0.9,0.69,-9.07,-81.04
-0.08,-0.26,0.9,-0.82,-8.66,-81.64
-0.07,-0.27,0.9,-2.55,-8.11,-82.26
-0.06,-0.29,0.89,-4.27,-7.3,-82.87
-0.06,-0.32,0.89,-5.79,-6.21,-83.39
-0.06,-0.33,0.87,-6.92,-4.9,-83.74
-0.06,-0.33,0.87,-6.92,-4.9,-83.74
-0.07,-0.35,0.86,-7.52,-3.5,-83.95
-0.08,-0.35,0.85,-7.46,-2.1,-84.05
-0.09,-0.35,0.85,-6.76,-0.83,-84.12
-0.09,-0.34,0.84,-5.56,0.18,-84.15
-0.09,-0.33,0.84,-3.91,0.82,-84.18
-0.09,-0.33,0.84,-3.91,0.82,-84.18
-0.1,-0.31,0.85,-2.04,1.17,-84.27
-0.1,-0.3,0.86,-0.16,1.14,-84.35
-0.11,-0.28,0.86,1.65,0.81,-84.37
-0.12,-0.25,0.87,3.4,0.31,-84.46
-0.12,-0.22,0.89,4.93,-0.29,-84.79
-0.12,-0.22,0.89,4.93,-0.29,-84.79
-0.14,-0.16,0.94,5.54,-0.94,-85.58
-0.12,-0.14,0.95,3.77,-2.15,-86.97
-0.09,-0.16,0.91,0.29,-3.6,-87.77
-0.09,-0.21,0.9,-3.41,-4.35,-87.74
-0.09,-0.26,0.88,-6.54,-4.38,-87.87
-0.09,-0.26,0.88,-6.54,-4.38,-87.87
-0.1,-0.28,0.85,-8.62,-3.86,-87.98
-0.11,-0.26,0.84,-9.33,-2.86,-87.65
-0.13,-0.24,0.84,-9.02,-1.87,-87.24
-0.14,-0.23,0.84,-8.28,-1.31,-86.91
-0.14,-0.23,0.84,-7.38,-1.19,-86.39
-0.14,-0.23,0.84,-7.38,-1.19,-86.39
-0.15,-0.21,0.84,-6.44,-1.56,-85.51
-0.15,-0.19,0.85,-5.64,-2.44,-84.45
-0.15,-0.17,0.86,-5.0,-3.65,-83.43
-0.15,-0.16,0.87,-4.47,-4.88,-82.44
-0.14,-0.15,0.88,-4.11,-6.06,-81.56
-0.14,-0.15,0.88,-4.11,-6.06,-81.56
-0.14,-0.14,0.89,-4.04,-7.2,-80.93
-0.13,-0.12,0.89,-4.29,-8.25,-80.66
-0.11,-0.1,0.89,-4.75,-9.04,-80.73
-0.17,-0.06,0.86,-5.16,-9.42,-80.56
-0.11,-0.15,0.92,-4.74,-9.88,-83.78
-0.11,-0.15,0.92,-4.74,-9.88,-83.78
0.09,-0.23,0.88,-3.67,-8.26,-87.23
-0.07,0.05,0.92,-2.61,-5.06,-82.79
-0.19,0.09,0.95,-5.39,-4.31,-79.99
-0.11,-0.06,0.86,-8.56,-4.54,-80.43
-0.08,-0.18,0.82,-9.03,-2.39,-79.81
-0.08,-0.18,0.82,-9.03,-2.39,-79.81
-0.12,-0.19,0.84,-7.44,0.01,-77.93
-0.15,-0.11,0.86,-4.34,2.16,-76.33
-0.17,-0.04,0.87,-0.66,4.54,-75.75
-0.17,0.01,0.89,2.45,6.54,-75.32
-0.17,0.09,0.89,3.28,7.36,-74.25
-0.17,0.09,0.89,3.28,7.36,-74.25
-0.2,0.17,0.86,0.58,6.28,-72.23
-0.2,0.17,0.84,-4.61,3.3,-70.3
-0.14,0.1,0.85,-9.95,0.02,-69.43
-0.07,0.07,0.88,-14.3,-2.24,-69.48
0.01,0.07,0.89,-18.02,-3.02,-69.51
0.01,0.07,0.89,-18.02,-3.02,-69.51
-0.04,0.12,0.89,-21.59,-2.36,-67.41
-0.09,0.12,0.87,-25.53,-1.33,-65.64
-0.09,0.05,0.86,-29.36,-0.47,-65.51
-0.06,-0.04,0.85,-32.38,0.72,-65.53
-0.09,-0.07,0.85,-34.6,2.24,-63.96
-0.09,-0.07,0.85,-34.6,2.24,-63.96
-0.12,-0.1,0.84,-35.81,3.57,-61.79
-0.11,-0.12,0.81,-35.09,4.83,-60.21
-0.07,-0.1,0.82,-31.87,6.38,-59.15
-0.06,-0.04,0.85,-27.01,8.14,-57.8
-0.09,0.05,0.87,-22.12,9.56,-56.17
-0.09,0.05,0.87,-22.12,9.56,-56.17
-0.09,0.12,0.86,-18.07,10.27,-54.79
-0.07,0.16,0.86,-14.98,10.34,-53.78
-0.03,0.18,0.89,-13.03,10.03,-52.71
0.01,0.17,0.93,-12.37,9.77,-51.45
0.02,0.14,0.95,-12.95,10.09,-50.12
0.02,0.14,0.95,-12.95,10.09,-50.12
0.0,0.1,0.96,-14.25,11.3,-48.74
-0.04,0.06,0.95,-15.71,13.36,-47.31
-0.09,0.03,0.93,-16.81,15.9,-46.01
-0.11,-0.0,0.9,-17.11,18.59,-44.8
-0.13,0.01,0.89,-16.31,21.16,-43.55
-0.13,0.01,0.89,-16.31,21.16,-43.55
-0.14,0.03,0.9,-14.6,23.37,-42.62
-0.12,0.05,0.89,-12.32,25.17,-41.95
-0.08,0.08,0.87,-9.52,26.84,-41.21
-0.05,0.12,0.87,-6.31,28.42,-40.08
-0.03,0.18,0.89,-3.19,29.63,-38.79
-0.03,0.18,0.89,-3.19,29.63,-38.79
0.0,0.21,0.93,-0.84,30.52,-37.62
0.04,0.2,0.94,0.53,31.23,-36.29
0.06,0.14,0.96,0.98,31.86,-33.9
0.04,0.08,0.98,0.89,32.57,-30.09
-0.02,0.04,0.98,0.89,33.58,-25.24
-0.02,0.04,0.98,0.89,33.58,-25.24
-0.08,0.02,0.97,1.81,34.98,-20.03
-0.14,0.03,0.96,4.07,36.83,-15.07
-0.18,0.05,0.92,7.56,38.76,-10.6
-0.23,0.08,0.91,11.84,40.07,-6.93
-0.25,0.13,0.93,16.5,40.38,-4.53
-0.25,0.13,0.93,16.5,40.38,-4.53
-0.26,0.19,0.94,21.14,39.7,-3.79
-0.22,0.24,0.95,25.29,37.91,-5.07
-0.14,0.28,0.97,28.74,34.97,-7.96
-0.03,0.33,1.02,31.23,31.03,-11.48
0.08,0.38,1.08,32.27,26.61,-14.77
0.08,0.38,1.08,32.27,26.61,-14.77
0.14,0.42,1.12,31.62,22.5,-16.94
0.15,0.43,1.14,29.07,19.44,-18.0
0.11,0.41,1.14,24.89,17.28,-18.06
0.04,0.38,1.12,19.45,15.68,-16.98
-0.01,0.34,1.09,13.22,14.09,-15.55
-0.01,0.34,1.09,13.22,14.09,-15.55
-0.02,0.29,1.08,6.67,12.13,-14.36
-0.02,0.24,1.09,0.21,10.02,-13.11
-0.02,0.21,1.07,-5.97,8.05,-11.79
-0.01,0.18,1.04,-11.78,6.24,-10.73
0.01,0.16,1.01,-17.14,4.26,-9.73
0.01,0.16,1.01,-17.14,4.26,-9.73
0.04,0.15,0.98,-21.95,2.04,-8.55
0.08,0.16,0.96,-26.01,-0.36,-7.23
0.14,0.17,0.95,-28.82,-2.35,-5.77
0.2,0.18,0.97,-30.06,-3.47,-4.0
0.25,0.14,1.0,-29.86,-3.5,-1.77
0.25,0.14,1.0,-29.86,-3.5,-1.77
0.28,0.09,1.02,-28.61,-2.44,1.12
0.26,0.03,1.02,-26.5,-0.55,4.66
0.22,-0.02,1.02,-23.44,1.84,8.62
0.17,-0.07,1.02,-19.44,4.35,12.52
0.14,-0.09,1.01,-14.62,6.6,16.19
0.14,-0.09,1.01,-14.62,6.6,16.19
0.1,-0.08,1.02,-9.28,8.34,19.55
0.06,-0.05,1.03,-3.58,9.56,22.39
0.04,-0.02,1.02,2.45,10.49,24.49
0.03,0.02,1.02,8.78,11.3,25.92
0.03,0.07,1.02,14.95,11.84,26.92
0.03,0.07,1.02,14.95,11.84,26.92
0.04,0.14,1.05,20.36,12.06,27.59
0.04,0.21,1.07,24.51,11.99,27.91
0.07,0.27,1.09,26.78,11.52,28.0
0.1,0.31,1.09,26.48,10.35,28.29
0.1,0.33,1.08,23.47,8.35,29.16
0.1,0.33,1.08,23.47,8.35,29.16
0.1,0.31,1.07,18.23,5.74,30.69
0.13,0.25,1.05,11.65,2.83,32.72
0.17,0.16,1.03,4.59,-0.03,35.33
0.19,0.1,1.02,-2.03,-2.22,38.68
0.2,0.03,1.01,-7.33,-3.02,42.37
0.2,0.03,1.01,-7.33,-3.02,42.37
0.2,-0.05,0.99,-11.01,-2.32,45.77
0.19,-0.12,0.97,-13.06,-0.61,48.68
0.19,-0.16,0.96,-13.1,1.84,51.1
0.19,-0.17,0.96,-10.83,4.99,52.95
0.19,-0.14,0.98,-6.69,8.5,54.23
0.19,-0.14,0.98,-6.69,8.5,54.23
0.19,-0.1,1.0,-1.65,11.88,55.14
0.17,-0.05,1.04,3.36,14.77,56.05
0.15,-0.01,1.07,7.68,17.07,57.05
0.13,0.01,1.07,10.81,18.6,58.02
0.11,0.03,1.06,12.7,19.24,58.95
0.11,0.03,1.06,12.7,19.24,58.95
0.1,0.04,1.07,13.58,19.07,59.95
0.11,0.03,1.1,13.54,18.25,61.09
0.12,0.0,1.1,12.22,16.92,62.5
0.13,-0.03,1.07,9.96,15.21,63.88
0.13,-0.09,1.05,7.75,13.53,64.79
0.13,-0.09,1.05,7.75,13.53,64.79
0.14,-0.14,1.05,6.57,12.44,65.39
0.12,-0.14,1.05,6.41,12.01,66.04
0.12,-0.11,1.06,6.76,11.91,66.48
0.13,-0.08,1.05,7.24,11.84,66.33
0.13,-0.05,1.06,7.68,11.81,65.8
0.13,-0.05,1.06,7.68,11.81,65.8
0.19,-0.08,1.08,7.5,11.81,65.04
