ax,ay,az,gx,gy,gz
-0.91,0.14,0.29,25.63,-1.69,89.08
-0.95,0.04,0.27,16.7,7.18,92.08
-0.97,-0.08,0.27,7.64,14.77,94.05
-0.97,-0.08,0.27,7.64,14.77,94.05
-1.0,-0.21,0.29,-0.74,21.14,94.94
-1.04,-0.33,0.31,-7.8,26.36,94.46
-1.07,-0.42,0.33,-13.03,30.48,92.08
-1.08,-0.48,0.36,-16.17,33.57,87.49
-1.05,-0.49,0.43,-17.43,35.75,80.99
-1.05,-0.49,0.43,-17.43,35.75,80.99
-1.02,-0.46,0.52,-18.04,37.46,72.99
-0.99,-0.43,0.59,-19.73,38.92,63.66
-0.97,-0.43,0.62,-23.52,39.86,53.08
-0.94,-0.45,0.64,-29.33,39.98,41.7
-0.9,-0.48,0.66,-36.44,39.22,30.12
-0.9,-0.48,0.66,-36.44,39.22,30.12
-0.85,-0.51,0.67,-44.3,37.53,18.79
-0.79,-0.56,0.67,-52.37,34.79,7.81
-0.67,-0.66,0.68,-59.87,31.29,-2.12
-0.68,-0.56,0.67,-67.37,27.47,-8.99
-0.62,-0.73,0.56,-74.33,22.24,-16.32
-0.62,-0.73,0.56,-74.33,22.24,-16.32
-0.43,-1.0,0.39,-74.74,18.6,-23.96
-0.38,-1.06,0.48,-67.99,16.41,-28.25
-0.36,-0.94,0.56,-56.0,15.71,-30.84
-0.39,-0.76,0.61,-40.53,16.83,-32.41
-0.42,-0.6,0.71,-24.47,18.86,-34.22
-0.42,-0.6,0.71,-24.47,18.86,-34.22
-0.41,-0.48,0.78,-9.28,21.24,-37.34
-0.39,-0.35,0.83,4.49,23.68,-40.87
-0.39,-0.21,0.9,16.2,25.75,-44.07
-0.44,-0.07,1.0,25.22,26.88,-46.79
-0.48,0.03,1.05,30.72,26.52,-49.69
-0.48,0.03,1.05,30.72,26.52,-49.69
-0.49,0.09,1.07,32.68,24.3,-52.74
-0.5,0.12,1.08,31.89,20.6,-55.81
-0.53,0.17,1.08,29.49,15.95,-59.06
-0.6,0.22,1.08,26.61,10.86,-62.6
-0.69,0.31,1.1,23.81,5.53,-66.53
-0.69,0.31,1.1,23.81,5.53,-66.53
-0.73,0.4,1.1,20.94,-0.22,-70.88
-0.73,0.47,1.11,17.75,-6.41,-75.08
-0.7,0.53,1.12,14.03,-12.81,-78.15
-0.67,0.56,1.1,9.79,-19.06,-79.46
-0.65,0.56,1.06,5.47,-24.78,-79.08
-0.65,0.56,1.06,5.47,-24.78,-79.08
-0.65,0.54,1.0,1.74,-29.77,-77.31
-0.64,0.52,0.94,-0.83,-33.99,-74.22
-0.65,0.51,0.89,-1.77,-37.39,-69.81
-0.66,0.52,0.84,-0.89,-40.18,-64.39
-0.67,0.51,0.78,1.69,-42.67,-58.3
-0.67,0.51,0.78,1.69,-42.67,-58.3
-0.68,0.51,0.74,5.78,-44.96,-51.4
-0.72,0.55,0.71,10.94,-47.08,-43.62
-0.75,0.59,0.68,16.4,-49.34,-35.42
-0.75,0.61,0.64,21.4,-51.78,-27.0
-0.75,0.63,0.62,25.35,-54.18,-17.75
-0.75,0.63,0.62,25.35,-54.18,-17.75
-0.77,0.64,0.58,27.82,-56.48,-7.59
-0.78,0.6,0.51,29.01,-58.76,2.33
-0.76,0.51,0.44,29.84,-60.62,11.53
-0.75,0.44,0.41,30.95,-61.47,20.38
-0.74,0.4,0.37,32.04,-60.98,29.04
-0.74,0.4,0.37,32.04,-60.98,29.04
-0.74,0.38,0.34,32.59,-59.02,37.17
-0.74,0.34,0.3,32.11,-55.36,44.32
-0.75,0.29,0.27,30.61,-50.1,50.4
-0.76,0.24,0.24,28.31,-43.34,55.61
-0.78,0.19,0.23,25.29,-35.24,60.17
-0.78,0.19,0.23,25.29,-35.24,60.17
-0.81,0.13,0.21,21.49,-26.53,64.33
-0.85,0.06,0.2,16.9,-17.91,68.16
-0.89,-0.02,0.19,11.66,-9.78,71.48
-0.91,-0.09,0.18,6.12,-2.25,73.9
-0.91,-0.17,0.18,0.66,4.87,75.13
-0.91,-0.17,0.18,0.66,4.87,75.13
-0.9,-0.24,0.2,-4.45,11.69,75.3
-0.92,-0.28,0.22,-9.09,18.47,74.45
-0.94,-0.3,0.24,-13.25,25.37,72.2
-0.95,-0.32,0.29,-17.19,32.13,68.26
-0.94,-0.32,0.34,-21.67,38.29,63.1
-0.94,-0.32,0.34,-21.67,38.29,63.1
-0.93,-0.33,0.4,-27.42,43.44,57.22
-0.93,-0.38,0.43,-34.61,47.31,50.72
-0.91,-0.45,0.46,-42.8,49.84,43.51
-0.87,-0.54,0.48,-51.11,51.1,35.69
-0.82,-0.62,0.52,-58.74,51.36,27.49
-0.82,-0.62,0.52,-58.74,51.36,27.49
-0.76,-0.7,0.54,-65.18,50.98,19.25
-0.7,-0.76,0.56,-69.89,50.19,11.24
-0.65,-0.81,0.58,-72.58,49.32,3.53
-0.58,-0.84,0.62,-73.08,48.64,-3.9
-0.51,-0.83,0.65,-71.23,48.47,-10.75
-0.51,-0.83,0.65,-71.23,48.47,-10.75
-0.47,-0.84,0.69,-67.02,48.87,-17.28
-0.38,-0.9,0.75,-60.28,49.82,-23.81
-0.35,-0.7,0.9,-52.4,51.62,-27.69
-0.5,-0.59,0.91,-47.64,52.2,-30.13
-0.41,-0.7,0.8,-40.91,52.02,-36.26
-0.41,-0.7,0.8,-40.91,52.02,-36.26
-0.41,-0.71,0.89,-31.55,51.4,-42.2
-0.42,-0.6,0.95,-20.17,49.95,-47.59
-0.45,-0.44,1.02,-8.18,47.34,-51.56
-0.47,-0.27,1.12,2.66,43.05,-55.0
-0.45,-0.12,1.17,11.0,37.11,-59.19
-0.45,-0.12,1.17,11.0,37.11,-59.19
-0.43,-0.02,1.19,16.32,30.05,-63.92
-0.47,0.05,1.19,18.74,22.78,-68.34
-0.56,0.12,1.15,19.53,16.11,-72.25
-0.65,0.22,1.12,20.15,10.39,-75.83
-0.69,0.33,1.12,21.04,5.56,-79.05
-0.69,0.33,1.12,21.04,5.56,-79.05
-0.73,0.44,1.14,21.82,1.54,-81.49
-0.78,0.55,1.14,21.65,-2.03,-83.1
-0.8,0.58,1.1,20.07,-5.57,-84.32
-0.77,0.55,1.03,17.82,-9.13,-84.66
-0.73,0.52,0.98,16.03,-12.49,-82.74
-0.73,0.52,0.98,16.03,-12.49,-82.74
-0.75,0.57,0.94,15.37,-15.54,-77.61
-0.77,0.57,0.88,15.61,-18.81,-70.72
-0.76,0.53,0.8,16.95,-22.63,-63.14
-0.73,0.47,0.72,19.98,-26.71,-54.42
-0.73,0.47,0.72,25.21,-30.72,-44.22
-0.72,0.45,0.66,25.21,-30.72,-44.22
-0.73,0.47,0.63,32.33,-34.5,-33.18
-0.74,0.5,0.6,40.31,-37.98,-22.21
-0.76,0.53,0.58,47.9,-40.89,-11.91
-0.76,0.56,0.55,54.2,-42.82,-2.61
-0.76,0.56,0.55,54.2,-42.82,-2.61
-0.75,0.59,0.53,58.6,-43.45,5.8
-0.75,0.64,0.52,60.49,-42.55,14.05
-0.79,0.66,0.48,59.52,-40.36,21.76
-0.83,0.63,0.44,56.26,-37.19,28.04
-0.86,0.57,0.39,51.57,-33.29,33.08
-0.86,0.57,0.39,51.57,-33.29,33.08
-0.9,0.53,0.36,45.71,-29.35,37.33
-0.91,0.5,0.34,38.6,-26.04,41.01
-0.9,0.47,0.31,30.07,-23.89,44.46
-0.87,0.41,0.29,20.11,-23.02,48.12
-0.84,0.31,0.26,9.3,-23.04,52.3
-0.84,0.31,0.26,9.3,-23.04,52.3
-0.81,0.2,0.21,-1.28,-23.31,57.21
-0.79,0.08,0.18,-10.67,-23.17,62.73
-0.78,-0.03,0.16,-18.32,-22.01,68.45
-0.78,-0.14,0.14,-24.11,-19.47,73.98
-0.79,-0.23,0.14,-28.0,-15.39,79.2
-0.79,-0.23,0.14,-28.0,-15.39,79.2
-0.8,-0.32,0.14,-30.01,-9.62,83.95
-0.83,-0.4,0.14,-30.11,-2.25,88.07
-0.87,-0.47,0.16,-28.3,6.35,91.26
-0.93,-0.51,0.21,-24.69,15.61,93.14
-1.0,-0.51,0.27,-19.67,24.81,93.14
-1.0,-0.51,0.27,-19.67,24.81,93.14
-1.07,-0.48,0.35,-13.87,33.24,90.87
-1.1,-0.42,0.45,-8.46,40.2,86.03
-1.11,-0.36,0.54,-4.9,44.91,78.98
-1.09,-0.31,0.64,-4.35,46.97,70.48
-1.05,-0.28,0.71,-7.52,46.44,61.15
-1.05,-0.28,0.71,-7.52,46.44,61.15
-0.99,-0.29,0.75,-14.52,43.58,51.52
-0.95,-0.35,0.74,-24.76,38.94,41.83
-0.87,-0.46,0.71,-36.85,33.27,31.76
-0.73,-0.61,0.7,-48.75,27.68,21.79
-0.74,-0.56,0.64,-60.37,23.07,14.21
-0.74,-0.56,0.64,-60.37,23.07,14.21
-0.64,-0.79,0.52,-70.05,18.25,5.48
-0.47,-1.07,0.39,-72.28,16.83,-3.66
-0.43,-1.12,0.47,-67.01,17.58,-9.78
-0.42,-1.02,0.53,-56.43,20.02,-14.23
-0.45,-0.87,0.58,-42.01,24.1,-17.83
-0.45,-0.87,0.58,-42.01,24.1,-17.83
-0.49,-0.71,0.67,-26.63,28.38,-21.16
-0.46,-0.59,0.72,-11.76,32.07,-25.33
-0.41,-0.48,0.77,2.38,35.0,-29.53
-0.39,-0.36,0.86,15.27,36.91,-32.63
-0.44,-0.25,0.93,26.16,37.41,-34.34
-0.44,-0.25,0.93,26.16,37.41,-34.34
-0.51,-0.15,0.99,34.49,36.04,-35.65
-0.55,-0.07,1.03,40.25,32.63,-37.55
-0.55,0.01,1.06,43.61,27.38,-40.63
-0.5,0.08,1.08,44.69,20.93,-45.22
-0.47,0.14,1.1,43.93,13.97,-50.96
-0.47,0.14,1.1,43.93,13.97,-50.96
-0.47,0.22,1.1,41.95,7.17,-57.31
-0.51,0.31,1.1,39.26,1.06,-63.77
-0.56,0.41,1.1,36.29,-4.06,-69.9
-0.59,0.51,1.1,33.12,-8.24,-75.3
-0.62,0.62,1.11,29.45,-11.66,-79.63
-0.62,0.62,1.11,29.45,-11.66,-79.63
-0.66,0.71,1.11,24.93,-14.55,-82.93
-0.67,0.74,1.07,19.55,-17.11,-85.06
-0.67,0.73,1.01,13.94,-19.55,-85.27
-0.69,0.71,0.94,9.28,-21.96,-83.23
-0.71,0.69,0.87,6.56,-24.6,-79.4
-0.71,0.69,0.87,6.56,-24.6,-79.4
-0.7,0.67,0.8,6.26,-27.65,-73.96
-0.7,0.67,0.76,8.31,-31.12,-66.61
-0.7,0.69,0.72,11.96,-35.02,-57.58
-0.69,0.71,0.67,16.21,-39.3,-47.53
-0.67,0.7,0.62,20.17,-43.67,-36.85
-0.67,0.7,0.62,20.17,-43.67,-36.85
-0.63,0.69,0.56,23.46,-47.62,-25.53
-0.62,0.65,0.49,26.17,-50.5,-13.69
-0.65,0.62,0.42,28.65,-51.98,-2.05
-0.65,0.52,0.34,31.47,-51.8,7.93
-0.63,0.41,0.3,35.26,-49.4,16.72
-0.63,0.41,0.3,35.26,-49.4,16.72
-0.66,0.4,0.31,39.09,-44.48,25.53
-0.73,0.42,0.3,41.41,-37.83,33.71
-0.78,0.4,0.27,41.68,-30.67,39.85
-0.81,0.34,0.25,39.93,-23.27,44.22
-0.86,0.29,0.25,36.48,-15.77,47.66
-0.86,0.29,0.25,36.48,-15.77,47.66
-0.93,0.24,0.25,31.52,-8.5,50.29
-0.98,0.18,0.27,25.11,-1.98,52.05
-1.02,0.11,0.29,17.16,3.31,53.1
-1.04,0.02,0.32,7.74,7.24,53.53
-1.04,-0.08,0.34,-2.62,9.87,53.42
-1.04,-0.08,0.34,-2.62,9.87,53.42
-1.03,-0.19,0.36,-13.1,11.62,52.86
-1.03,-0.31,0.37,-23.09,13.09,51.98
-1.03,-0.42,0.37,-32.1,14.76,50.61
-1.03,-0.52,0.36,-39.53,16.74,48.61
-1.0,-0.6,0.36,-44.84,18.94,46.0
-1.0,-0.6,0.36,-44.84,18.94,46.0
-0.97,-0.67,0.38,-47.78,21.34,42.98
-0.93,-0.7,0.4,-48.51,24.14,39.7
-0.9,-0.73,0.41,-47.29,27.42,36.01
-0.88,-0.73,0.42,-44.28,30.88,31.82
-0.86,-0.7,0.46,-39.84,34.16,27.4
-0.86,-0.7,0.46,-39.84,34.16,27.4
-0.85,-0.66,0.5,-34.69,37.0,22.94
-0.86,-0.6,0.54,-29.63,38.97,18.3
-0.84,-0.54,0.58,-25.27,39.81,13.31
-0.82,-0.48,0.61,-22.08,39.49,8.03
-0.76,-0.5,0.62,-20.37,38.07,1.99
-0.76,-0.5,0.62,-20.37,38.07,1.99
-0.6,-0.56,0.66,-19.06,36.35,-4.12
-0.68,-0.32,0.69,-19.71,34.95,-6.58
-0.67,-0.44,0.61,-22.22,31.61,-10.03
-0.52,-0.69,0.49,-21.06,29.7,-15.63
-0.52,-0.64,0.59,-15.97,28.09,-18.47
-0.52,-0.64,0.59,-15.97,28.09,-18.47
-0.53,-0.53,0.66,-8.57,27.15,-21.22
-0.52,-0.44,0.71,-0.14,26.39,-24.39
-0.49,-0.34,0.78,7.67,25.36,-27.65
-0.45,-0.26,0.82,14.57,24.1,-31.54
-0.41,-0.17,0.88,20.65,22.95,-35.84
-0.41,-0.17,0.88,20.65,22.95,-35.84
-0.4,-0.08,0.95,25.3,21.69,-40.03
-0.42,-0.0,0.99,28.11,20.06,-43.62
-0.44,0.05,1.01,28.97,17.8,-46.91
-0.44,0.08,1.0,28.38,14.77,-49.88
-0.46,0.12,1.0,27.34,11.28,-52.3
-0.46,0.12,1.0,27.34,11.28,-52.3
-0.5,0.19,1.0,26.7,7.5,-54.59
-0.57,0.27,1.01,26.74,3.67,-57.26
-0.64,0.37,1.03,27.13,-0.16,-60.47
-0.68,0.47,1.05,27.25,-3.86,-64.02
-0.69,0.57,1.06,26.76,-7.31,-67.31
-0.69,0.57,1.06,26.76,-7.31,-67.31
-0.68,0.66,1.07,25.45,-10.3,-69.53
-0.69,0.74,1.07,23.03,-12.88,-70.17
-0.72,0.78,1.05,19.4,-15.42,-69.39
-0.74,0.77,0.99,14.91,-18.25,-67.13
-0.76,0.72,0.93,10.51,-21.76,-63.12
-0.76,0.72,0.93,10.51,-21.76,-63.12
-0.78,0.69,0.86,7.25,-26.12,-57.67
-0.77,0.65,0.8,5.6,-31.35,-51.45
-0.75,0.61,0.75,5.65,-37.08,-44.59
-0.72,0.59,0.7,6.99,-42.79,-37.02
-0.68,0.59,0.66,9.01,-48.09,-29.16
-0.68,0.59,0.66,9.01,-48.09,-29.16
-0.64,0.58,0.6,11.24,-52.42,-21.21
-0.62,0.58,0.56,13.17,-55.33,-12.76
-0.63,0.6,0.5,14.34,-56.77,-3.78
-0.64,0.55,0.41,14.92,-56.97,4.41
-0.62,0.45,0.35,15.99,-55.72,11.49
-0.62,0.45,0.35,15.99,-55.72,11.49
-0.62,0.39,0.34,17.97,-52.8,18.21
-0.64,0.38,0.34,20.04,-48.42,25.04
-0.68,0.4,0.35,20.94,-43.22,31.54
-0.7,0.38,0.35,19.79,-37.82,37.2
-0.72,0.33,0.33,16.56,-32.51,42.04
-0.72,0.33,0.33,16.56,-32.51,42.04
-0.75,0.24,0.3,12.03,-27.24,46.53
-0.79,0.15,0.29,7.1,-21.93,50.97
-0.84,0.06,0.27,2.37,-16.59,55.42
-0.89,-0.02,0.26,-1.78,-11.33,59.73
-0.93,-0.08,0.26,-5.06,-6.25,63.72
-0.93,-0.08,0.26,-5.06,-6.25,63.72
-0.95,-0.14,0.26,-7.37,-1.3,67.17
-0.96,-0.19,0.26,-8.8,3.62,69.95
-0.97,-0.24,0.27,-9.52,8.61,72.03
-0.98,-0.29,0.28,-9.56,13.67,73.31
-0.98,-0.33,0.3,-8.87,18.74,73.68
-0.98,-0.33,0.3,-8.87,18.74,73.68
-0.98,-0.34,0.34,-7.7,23.79,73.13
-0.98,-0.34,0.38,-6.48,28.8,71.77
-1.0,-0.34,0.42,-5.8,33.7,69.33
-1.02,-0.35,0.45,-6.12,38.19,65.49
-1.03,-0.37,0.49,-7.48,41.91,60.32
-1.03,-0.37,0.49,-7.48,41.91,60.32
-1.01,-0.37,0.52,-9.7,44.75,54.19
-1.0,-0.38,0.54,-12.66,46.67,47.47
-0.97,-0.38,0.56,-16.28,47.41,40.53
-0.93,-0.39,0.58,-20.51,46.75,33.78
-0.9,-0.39,0.6,-25.37,44.64,27.32
-0.9,-0.39,0.6,-25.37,44.64,27.32
-0.88,-0.41,0.6,-30.87,41.36,20.72
-0.76,-0.53,0.61,-36.02,37.76,13.32
-0.71,-0.4,0.65,-41.3,35.14,7.87
-0.71,-0.46,0.56,-48.02,31.64,2.99
-0.5,-0.76,0.38,-49.28,30.78,-4.07
-0.5,-0.76,0.38,-49.28,30.78,-4.07
-0.48,-0.82,0.49,-43.91,32.28,-7.77
-0.55,-0.68,0.63,-35.03,34.66,-9.96
-0.59,-0.55,0.68,-24.79,37.38,-12.82
-0.61,-0.46,0.78,-15.59,38.92,-15.93
-0.58,-0.43,0.83,-8.35,38.77,-19.77
-0.58,-0.43,0.83,-8.35,38.77,-19.77
-0.54,-0.39,0.84,-1.98,37.43,-23.63
-0.53,-0.34,0.88,4.27,34.98,-27.07
-0.54,-0.28,0.95,10.3,31.17,-29.66
-0.56,-0.21,1.01,15.23,25.95,-32.13
-0.53,-0.15,1.04,18.51,19.65,-35.47
-0.53,-0.15,1.04,18.51,19.65,-35.47
-0.49,-0.11,1.05,20.1,12.79,-39.78
-0.44,-0.07,1.05,20.49,6.03,-44.93
-0.41,-0.03,1.03,20.1,-0.0,-50.84
-0.42,0.02,1.03,19.23,-5.01,-57.31
-0.45,0.09,1.02,18.12,-8.59,-64.33
-0.45,0.09,1.02,18.12,-8.59,-64.33
-0.49,0.17,1.0,17.22,-10.5,-71.28
-0.54,0.27,1.0,16.78,-10.9,-77.59
-0.58,0.38,1.0,16.57,-10.3,-82.92
-0.61,0.5,1.02,15.84,-9.56,-86.96
-0.64,0.58,1.01,13.88,-9.53,-89.57
-0.64,0.58,1.01,13.88,-9.53,-89.57
-0.66,0.62,0.98,10.72,-10.62,-90.37
-0.66,0.61,0.92,7.22,-12.97,-89.11
-0.66,0.59,0.86,4.59,-16.43,-85.96
-0.65,0.58,0.82,3.72,-20.55,-81.04
-0.67,0.61,0.8,4.56,-24.95,-74.59
-0.67,0.61,0.8,4.56,-24.95,-74.59
-0.69,0.64,0.77,6.47,-29.49,-67.44
-0.7,0.66,0.72,8.98,-33.89,-60.18
-0.69,0.69,0.68,11.77,-37.65,-52.37
-0.7,0.73,0.64,14.4,-40.36,-43.68
-0.72,0.75,0.6,16.52,-41.76,-34.66
-0.72,0.75,0.6,16.52,-41.76,-34.66
-0.76,0.78,0.55,17.99,-41.67,-26.24
-0.75,0.72,0.51,19.04,-40.31,-19.5
-0.74,0.68,0.49,20.3,-37.28,-13.07
-0.79,0.7,0.49,21.26,-32.67,-5.16
-0.87,0.73,0.46,20.75,-27.81,3.65
-0.87,0.73,0.46,20.75,-27.81,3.65
-0.94,0.69,0.45,18.36,-24.14,12.13
-0.96,0.59,0.4,14.54,-21.85,20.03
-0.95,0.48,0.36,10.22,-20.67,27.92
-0.94,0.39,0.33,6.2,-19.98,36.02
-0.94,0.29,0.32,2.94,-19.3,44.16
-0.94,0.29,0.32,2.94,-19.3,44.16
-0.93,0.2,0.3,0.35,-18.25,52.04
-0.93,0.11,0.29,-1.73,-16.7,59.54
-0.93,0.02,0.28,-3.36,-14.64,66.48
-0.94,-0.07,0.29,-4.55,-12.16,72.67
-0.95,-0.16,0.31,-5.5,-9.29,77.98
-0.95,-0.16,0.31,-5.5,-9.29,77.98
-0.98,-0.25,0.32,-6.48,-6.07,82.13
-1.01,-0.33,0.34,-7.41,-2.8,84.73
-1.03,-0.39,0.36,-8.31,0.43,85.38
-1.03,-0.45,0.4,-9.28,3.4,84.03
-1.02,-0.48,0.43,-10.65,6.22,80.87
-1.02,-0.48,0.43,-10.65,6.22,80.87
-1.01,-0.49,0.47,-12.53,8.88,76.21
-1.0,-0.51,0.5,-15.18,11.25,70.22
-0.98,-0.53,0.52,-18.84,13.03,63.04
-0.94,-0.55,0.54,-23.43,13.82,55.06
-0.89,-0.58,0.54,-28.66,13.61,46.86
-0.89,-0.58,0.54,-28.66,13.61,46.86
-0.85,-0.6,0.53,-33.96,12.71,38.78
-0.79,-0.68,0.51,-38.53,11.73,30.26
-0.63,-0.78,0.53,-41.24,11.49,21.94
-0.71,-0.6,0.52,-43.62,11.84,17.27
-0.64,-0.73,0.44,-44.71,11.08,11.77
-0.64,-0.73,0.44,-44.71,11.08,11.77
-0.58,-0.87,0.39,-40.85,11.78,6.18
-0.54,-0.85,0.5,-33.31,12.22,1.42
-0.51,-0.72,0.54,-24.15,12.84,-2.47
-0.5,-0.58,0.6,-14.65,13.43,-5.73
-0.48,-0.48,0.66,-6.25,13.66,-9.35
-0.48,-0.48,0.66,-6.25,13.66,-9.35
-0.42,-0.43,0.69,0.78,13.7,-14.22
-0.36,-0.38,0.73,6.67,13.77,-19.42
-0.34,-0.32,0.77,11.45,13.76,-24.2
-0.35,-0.25,0.82,15.19,13.36,-28.39
-0.36,-0.19,0.85,17.7,12.39,-32.49
-0.36,-0.19,0.85,17.7,12.39,-32.49
-0.35,-0.14,0.87,19.08,10.72,-36.77
-0.34,-0.1,0.89,19.72,8.57,-41.38
-0.32,-0.05,0.91,20.1,6.32,-46.2
-0.33,0.02,0.92,20.41,4.07,-51.08
-0.37,0.1,0.93,20.83,1.97,-55.81
-0.37,0.1,0.93,20.83,1.97,-55.81
-0.43,0.19,0.95,21.39,0.14,-60.32
-0.5,0.29,0.97,22.14,-1.41,-64.39
-0.57,0.4,0.98,23.07,-2.73,-67.57
-0.65,0.52,1.02,23.86,-4.2,-69.68
-0.71,0.62,1.03,23.78,-6.21,-70.93
-0.71,0.62,1.03,23.78,-6.21,-70.93
-0.73,0.69,1.03,22.31,-9.2,-71.35
-0.73,0.71,1.0,19.77,-13.28,-70.33
-0.73,0.71,0.96,16.99,-18.37,-67.33
-0.74,0.69,0.91,14.78,-24.32,-62.47
-0.74,0.65,0.86,13.64,-31.02,-56.19
-0.74,0.65,0.86,13.64,-31.02,-56.19
-0.72,0.62,0.81,13.77,-38.22,-48.7
-0.69,0.61,0.76,15.08,-45.47,-40.21
-0.67,0.61,0.72,17.11,-52.33,-31.32
-0.64,0.6,0.68,19.17,-58.35,-22.59
-0.64,0.6,0.68,20.61,-62.92,-14.0
-0.6,0.58,0.64,20.61,-62.92,-14.0
-0.59,0.56,0.58,21.19,-65.49,-5.35
-0.61,0.54,0.49,21.27,-65.69,3.09
-0.64,0.49,0.41,21.71,-63.66,9.95
-0.61,0.36,0.35,23.96,-59.54,14.29
-0.61,0.36,0.35,23.96,-59.54,14.29
-0.56,0.28,0.35,29.02,-52.5,18.39
-0.63,0.37,0.41,35.25,-42.79,24.61
-0.76,0.48,0.43,40.05,-32.23,31.38
-0.86,0.51,0.42,42.17,-22.62,36.08
-0.91,0.46,0.38,41.52,-14.52,38.99
-0.91,0.46,0.38,41.52,-14.52,38.99
-0.93,0.41,0.37,38.19,-8.37,41.38
-0.95,0.37,0.37,32.55,-3.96,43.61
-0.94,0.31,0.38,25.21,-0.51,45.4
-0.93,0.23,0.38,16.69,2.57,46.89
-0.92,0.14,0.38,7.51,5.51,48.45
-0.92,0.14,0.38,7.51,5.51,48.45
-0.93,0.04,0.38,-1.8,8.62,50.09
-0.92,-0.08,0.37,-10.71,12.07,51.5
-0.91,-0.19,0.35,-18.68,15.85,52.61
-0.88,-0.29,0.34,-25.11,19.86,53.65
-0.86,-0.38,0.35,-29.5,24.33,54.68
-0.86,-0.38,0.35,-29.5,24.33,54.68
-0.85,-0.44,0.36,-31.78,29.62,55.45
-0.85,-0.5,0.37,-32.07,35.53,55.74
-0.86,-0.53,0.39,-30.61,41.96,55.32
-0.87,-0.54,0.42,-27.49,48.58,54.12
-0.9,-0.52,0.49,-23.23,54.8,52.06
-0.9,-0.52,0.49,-23.23,54.8,52.06
-0.94,-0.47,0.56,-18.77,60.19,48.68
-0.97,-0.41,0.63,-15.06,64.11,43.58
-0.98,-0.35,0.7,-12.87,65.98,37.1
-0.95,-0.29,0.77,-12.81,65.64,29.87
-0.92,-0.25,0.82,-15.57,63.21,22.14
-0.92,-0.25,0.82,-15.57,63.21,22.14
-0.85,-0.3,0.83,-21.09,58.89,13.81
-0.72,-0.4,0.86,-28.27,53.63,6.07
-0.79,-0.26,0.83,-37.6,47.89,1.45
-0.73,-0.45,0.72,-47.48,40.7,-5.01
-0.55,-0.77,0.56,-51.59,35.69,-12.71
-0.55,-0.77,0.56,-51.59,35.69,-12.71
-0.53,-0.82,0.67,-49.12,32.21,-16.8
-0.54,-0.68,0.77,-42.79,29.68,-20.02
-0.55,-0.56,0.79,-34.18,27.9,-23.66
-0.54,-0.5,0.85,-24.98,25.97,-27.73
-0.49,-0.47,0.88,-15.83,23.82,-32.47
-0.49,-0.47,0.88,-15.83,23.82,-32.47
-0.44,-0.41,0.9,-6.79,21.96,-37.07
-0.43,-0.31,0.94,1.74,20.56,-40.86
-0.46,-0.18,0.99,8.84,19.37,-44.35
-0.48,-0.09,1.0,13.92,17.89,-48.15
-0.5,-0.02,0.99,17.13,15.8,-51.57
-0.5,-0.02,0.99,17.13,15.8,-51.57
-0.52,0.06,1.0,18.82,12.85,-54.51
-0.54,0.13,0.98,19.5,9.0,-57.87
-0.54,0.19,0.98,19.7,4.58,-62.05
-0.57,0.26,0.98,19.45,-0.07,-66.52
-0.62,0.35,0.97,18.94,-4.57,-70.74
-0.62,0.35,0.97,18.94,-4.57,-70.74
-0.68,0.46,0.97,18.34,-8.86,-74.38
-0.72,0.58,0.98,17.16,-13.2,-77.31
-0.72,0.67,0.98,14.67,-17.85,-79.43
-0.71,0.72,0.96,10.45,-22.88,-80.36
-0.69,0.7,0.89,4.81,-28.03,-79.89
-0.69,0.7,0.89,4.81,-28.03,-79.89
-0.68,0.65,0.82,-0.89,-32.86,-78.01
-0.67,0.59,0.74,-5.19,-37.04,-74.69
-0.66,0.55,0.68,-7.25,-40.3,-69.84
-0.66,0.54,0.64,-7.03,-42.58,-63.65
-0.65,0.54,0.61,-5.04,-44.19,-56.6
-0.65,0.54,0.61,-5.04,-44.19,-56.6
-0.62,0.53,0.57,-1.83,-45.3,-48.76
-0.6,0.55,0.54,2.05,-45.84,-39.49
-0.61,0.58,0.5,5.96,-45.91,-28.87
-0.62,0.59,0.44,9.48,-45.7,-18.02
-0.61,0.53,0.37,12.82,-45.41,-7.92
-0.61,0.53,0.37,12.82,-45.41,-7.92
