ax,ay,az,gx,gy,gz
0.86,0.13,0.68,0.24,3.07,2.68
0.84,0.14,0.67,0.46,3.02,2.7
0.84,0.13,0.67,0.76,2.88,2.75
0.84,0.13,0.67,0.76,2.88,2.75
0.85,0.14,0.66,1.15,2.65,2.81
0.86,0.14,0.66,1.49,2.4,2.89
0.87,0.14,0.66,1.75,2.31,2.98
0.86,0.14,0.66,1.86,2.44,3.1
0.86,0.14,0.66,1.88,2.75,3.2
0.86,0.14,0.66,1.88,2.75,3.2
0.85,0.13,0.65,1.85,3.18,3.23
0.85,0.13,0.65,1.89,3.66,3.17
0.85,0.13,0.65,1.97,4.19,3.07
0.85,0.13,0.66,2.06,4.77,2.94
0.85,0.13,0.66,2.17,5.39,2.79
0.85,0.13,0.66,2.17,5.39,2.79
0.85,0.13,0.67,2.33,6.04,2.66
0.85,0.14,0.67,2.51,6.67,2.55
0.84,0.14,0.67,2.7,7.19,2.52
0.83,0.14,0.67,2.92,7.44,2.55
0.83,0.14,0.68,3.2,7.41,2.62
0.83,0.14,0.68,3.2,7.41,2.62
0.83,0.14,0.69,3.51,7.16,2.72
0.85,0.15,0.69,3.79,6.78,2.82
0.86,0.15,0.7,3.96,6.42,2.97
0.87,0.15,0.69,4.01,6.19,3.07
0.87,0.15,0.7,3.98,6.19,3.12
0.87,0.15,0.7,3.98,6.19,3.12
0.86,0.14,0.69,3.87,6.32,3.18
0.86,0.14,0.69,3.69,6.52,3.29
0.85,0.13,0.7,3.53,6.74,3.46
0.84,0.13,0.7,3.4,6.88,3.55
0.84,0.13,0.71,3.27,6.89,3.55
0.84,0.13,0.71,3.27,6.89,3.55
0.84,0.13,0.71,3.09,6.74,3.5
0.85,0.12,0.71,2.85,6.45,3.43
0.85,0.12,0.7,2.64,6.1,3.34
0.85,0.12,0.7,2.54,5.69,3.24
0.85,0.11,0.7,2.54,5.23,3.14
0.85,0.11,0.7,2.54,5.23,3.14
0.85,0.11,0.69,2.58,4.76,2.99
0.86,0.11,0.69,2.67,4.33,2.77
0.86,0.11,0.69,2.84,3.97,2.46
0.87,0.11,0.68,3.11,3.68,2.07
0.88,0.11,0.68,3.5,3.5,1.62
0.88,0.11,0.68,3.5,3.5,1.62
0.89,0.11,0.68,3.92,3.54,1.14
0.88,0.11,0.68,4.33,3.81,0.66
0.88,0.12,0.68,4.72,4.23,0.26
0.87,0.12,0.68,5.1,4.66,-0.08
0.87,0.13,0.68,5.46,5.03,-0.4
0.87,0.13,0.68,5.46,5.03,-0.4
0.87,0.13,0.69,5.81,5.28,-0.66
0.87,0.14,0.7,6.04,5.49,-0.82
0.87,0.14,0.71,6.1,5.7,-0.93
0.86,0.15,0.71,5.97,5.81,-0.95
0.86,0.14,0.71,5.64,5.79,-0.91
0.86,0.14,0.71,5.64,5.79,-0.91
0.86,0.14,0.72,5.23,5.62,-0.76
0.86,0.14,0.72,4.77,5.34,-0.56
0.86,0.15,0.72,4.34,5.01,-0.28
0.86,0.14,0.73,3.93,4.58,0.05
0.86,0.14,0.72,3.49,4.07,0.42
0.86,0.14,0.72,3.49,4.07,0.42
0.86,0.14,0.72,3.07,3.48,0.79
0.86,0.13,0.71,2.73,2.82,1.07
0.87,0.13,0.71,2.45,2.21,1.22
0.87,0.12,0.7,2.25,1.69,1.29
0.88,0.12,0.69,2.13,1.33,1.27
0.88,0.12,0.69,2.13,1.33,1.27
0.88,0.12,0.69,2.09,1.13,1.17
0.88,0.12,0.69,2.16,1.12,1.05
0.88,0.12,0.69,2.28,1.28,0.88
0.87,0.12,0.69,2.43,1.56,0.67
0.87,0.13,0.7,2.59,1.91,0.4
0.87,0.13,0.7,2.59,1.91,0.4
0.87,0.13,0.7,2.63,2.25,0.1
0.86,0.13,0.7,2.53,2.56,-0.16
0.86,0.13,0.71,2.39,2.78,-0.36
0.85,0.13,0.71,2.29,2.84,-0.54
0.85,0.13,0.71,2.28,2.69,-0.66
0.85,0.13,0.71,2.28,2.69,-0.66
0.86,0.14,0.71,2.34,2.42,-0.7
0.86,0.14,0.71,2.41,2.08,-0.7
0.86,0.14,0.71,2.43,1.77,-0.63
0.86,0.15,0.71,2.4,1.5,-0.52
0.86,0.15,0.71,2.28,1.24,-0.34
0.86,0.15,0.71,2.28,1.24,-0.34
0.86,0.15,0.71,2.05,0.96,-0.09
0.86,0.15,0.7,1.65,0.63,0.2
0.86,0.14,0.7,1.2,0.29,0.49
0.86,0.14,0.69,0.79,-0.01,0.79
0.86,0.14,0.68,0.46,-0.22,1.06
0.86,0.14,0.68,0.46,-0.22,1.06
0.86,0.13,0.68,0.22,-0.33,1.27
0.86,0.12,0.67,0.13,-0.32,1.41
0.86,0.12,0.67,0.2,-0.21,1.48
0.86,0.12,0.67,0.37,-0.06,1.46
0.86,0.12,0.67,0.53,0.13,1.39
0.86,0.12,0.67,0.53,0.13,1.39
0.86,0.12,0.68,0.63,0.4,1.33
0.86,0.12,0.68,0.67,0.77,1.3
0.85,0.11,0.68,0.69,1.2,1.3
0.84,0.11,0.69,0.74,1.56,1.27
0.84,0.11,0.69,0.81,1.78,1.2
0.84,0.11,0.69,0.81,1.78,1.2
0.84,0.12,0.7,0.87,1.82,1.12
0.84,0.13,0.71,0.91,1.73,1.02
0.84,0.13,0.7,0.83,1.61,0.93
0.84,0.13,0.69,0.65,1.48,0.89
0.84,0.13,0.69,0.49,1.33,0.88
0.84,0.13,0.69,0.49,1.33,0.88
0.85,0.12,0.69,0.47,1.19,0.88
0.85,0.12,0.68,0.62,1.07,0.91
0.84,0.12,0.68,0.89,0.99,0.93
0.84,0.12,0.68,1.16,0.93,0.86
0.84,0.12,0.68,1.35,0.83,0.7
0.84,0.12,0.68,1.35,0.83,0.7
0.85,0.13,0.68,1.42,0.69,0.47
0.85,0.13,0.68,1.43,0.56,0.21
0.86,0.13,0.67,1.43,0.51,-0.07
0.86,0.12,0.67,1.4,0.58,-0.34
0.85,0.12,0.66,1.3,0.75,-0.56
0.85,0.12,0.66,1.3,0.75,-0.56
0.85,0.12,0.66,1.24,0.93,-0.75
0.86,0.12,0.67,1.33,1.14,-0.91
0.86,0.13,0.67,1.51,1.43,-1.05
0.86,0.14,0.68,1.67,1.85,-1.18
0.87,0.14,0.69,1.73,2.39,-1.31
0.87,0.14,0.69,1.73,2.39,-1.31
0.86,0.14,0.69,1.7,3.01,-1.4
0.86,0.14,0.7,1.56,3.62,-1.4
0.85,0.14,0.71,1.31,4.13,-1.34
0.84,0.15,0.7,1.01,4.45,-1.28
0.84,0.15,0.7,0.75,4.55,-1.24
0.84,0.14,0.7,0.75,4.55,-1.24
0.84,0.14,0.7,0.55,4.45,-1.19
0.84,0.14,0.7,0.39,4.18,-1.11
0.85,0.14,0.69,0.3,3.78,-1.03
0.86,0.13,0.69,0.27,3.39,-0.95
0.86,0.13,0.69,0.31,3.04,-0.86
0.86,0.13,0.68,0.31,3.04,-0.86
0.86,0.13,0.68,0.46,2.78,-0.79
0.86,0.13,0.67,0.69,2.68,-0.79
0.86,0.13,0.67,0.95,2.68,-0.84
0.86,0.13,0.66,1.17,2.69,-0.86
0.86,0.13,0.66,1.17,2.69,-0.86
0.86,0.13,0.66,1.34,2.74,-0.86
0.87,0.13,0.65,1.48,2.86,-0.88
0.87,0.13,0.65,1.63,3.03,-0.89
0.87,0.14,0.65,1.74,3.19,-0.94
0.88,0.14,0.64,1.77,3.39,-1.02
0.88,0.14,0.64,1.77,3.39,-1.02
0.89,0.14,0.64,1.69,3.67,-1.09
0.9,0.14,0.64,1.53,4.1,-1.16
0.9,0.14,0.64,1.4,4.65,-1.25
0.91,0.14,0.64,1.28,5.29,-1.37
0.91,0.15,0.64,1.13,5.92,-1.44
0.91,0.15,0.64,1.13,5.92,-1.44
0.91,0.15,0.64,1.01,6.46,-1.5
0.91,0.15,0.64,0.98,6.78,-1.56
0.93,0.16,0.64,1.11,6.83,-1.68
0.95,0.16,0.63,1.38,6.55,-1.83
0.97,0.17,0.62,1.8,6.03,-2.03
0.97,0.17,0.62,1.8,6.03,-2.03
0.99,0.19,0.62,2.34,5.39,-2.31
1.02,0.2,0.61,2.95,4.62,-2.65
1.04,0.21,0.6,3.63,3.87,-3.02
1.06,0.22,0.59,4.31,3.17,-3.45
1.08,0.24,0.58,4.96,2.55,-3.85
1.08,0.24,0.58,4.96,2.55,-3.85
1.09,0.25,0.57,5.59,1.98,-4.16
1.11,0.28,0.57,6.16,1.4,-4.4
1.13,0.32,0.59,6.68,0.95,-4.63
1.17,0.37,0.61,7.2,0.85,-4.99
1.19,0.42,0.63,7.49,1.06,-5.3
1.19,0.42,0.63,7.49,1.06,-5.3
1.2,0.46,0.63,7.27,1.48,-5.52
1.2,0.49,0.63,6.43,2.01,-5.78
1.19,0.51,0.62,5.2,2.55,-6.08
1.18,0.52,0.61,3.91,2.88,-6.27
1.15,0.53,0.58,2.95,2.78,-6.26
1.15,0.53,0.58,2.95,2.78,-6.26
1.12,0.54,0.55,2.71,2.08,-6.02
1.09,0.56,0.51,3.5,0.61,-5.49
1.06,0.59,0.48,5.47,-1.69,-4.7
1.06,0.61,0.45,8.44,-4.72,-3.75
1.08,0.63,0.43,12.06,-8.16,-2.59
1.08,0.63,0.43,12.06,-8.16,-2.59
1.1,0.65,0.42,15.98,-11.57,-1.15
1.12,0.68,0.42,19.8,-14.5,0.67
1.13,0.72,0.43,23.21,-16.61,2.77
1.14,0.77,0.45,25.96,-17.56,5.0
1.13,0.83,0.48,27.9,-17.15,7.22
1.13,0.83,0.48,27.9,-17.15,7.22
1.09,0.85,0.47,28.59,-15.53,9.41
1.06,0.84,0.43,27.7,-13.3,11.79
1.04,0.8,0.39,25.69,-11.09,14.59
1.06,0.73,0.36,23.53,-9.23,18.01
1.08,0.67,0.33,22.06,-7.77,22.33
1.08,0.67,0.33,22.06,-7.77,22.33
1.08,0.63,0.3,21.97,-6.47,27.25
1.06,0.59,0.29,23.4,-5.14,32.28
1.04,0.55,0.31,25.89,-3.72,37.12
1.0,0.53,0.34,28.9,-2.24,41.51
0.98,0.52,0.37,32.17,-0.6,45.08
0.98,0.52,0.37,32.17,-0.6,45.08
0.98,0.52,0.42,35.46,1.41,47.61
0.98,0.51,0.47,38.46,4.15,49.22
0.97,0.51,0.52,40.66,7.99,50.19
0.95,0.51,0.57,41.93,13.08,50.6
0.91,0.49,0.64,42.31,19.28,50.74
0.91,0.49,0.64,42.31,19.28,50.74
0.85,0.47,0.7,41.85,26.17,50.87
0.79,0.45,0.73,40.51,32.87,51.27
0.75,0.43,0.75,38.49,38.57,52.15
0.73,0.39,0.8,36.01,43.13,53.81
0.69,0.34,0.87,32.85,46.74,56.45
0.69,0.34,0.87,32.85,46.74,56.45
0.66,0.26,0.93,28.92,49.41,60.04
0.62,0.2,0.95,24.42,51.3,64.47
0.56,0.14,0.99,19.76,52.47,69.51
0.49,0.07,1.04,14.96,52.98,74.77
0.44,-0.01,1.08,9.79,52.91,79.87
0.44,-0.01,1.08,9.79,52.91,79.87
0.4,-0.08,1.1,4.07,52.28,84.63
0.37,-0.16,1.1,-2.14,50.91,88.96
0.36,-0.24,1.09,-8.56,48.88,92.59
0.37,-0.33,1.09,-14.93,46.29,95.14
0.39,-0.43,1.09,-20.81,43.48,96.55
0.39,-0.43,1.09,-20.81,43.48,96.55
0.42,-0.51,1.1,-25.76,41.02,96.89
0.42,-0.6,1.1,-29.41,39.25,96.13
0.4,-0.66,1.08,-31.39,38.22,94.17
0.36,-0.71,1.07,-31.52,37.67,90.91
0.34,-0.73,1.07,-29.82,37.32,86.42
0.34,-0.73,1.07,-29.82,37.32,86.42
0.33,-0.74,1.06,-26.48,36.84,80.92
0.34,-0.72,1.06,-21.86,35.9,74.75
0.35,-0.68,1.07,-16.32,34.19,68.29
0.37,-0.63,1.07,-10.38,31.66,61.93
0.39,-0.58,1.07,-4.69,28.29,55.76
0.39,-0.58,1.07,-4.69,28.29,55.76
0.42,-0.55,1.06,0.15,24.27,49.84
0.46,-0.52,1.04,3.9,19.9,44.27
0.49,-0.52,1.02,6.62,15.52,39.21
0.49,-0.51,0.99,8.64,11.37,34.61
0.48,-0.5,0.96,10.32,7.54,30.23
0.48,-0.5,0.96,10.32,7.54,30.23
0.47,-0.48,0.93,11.83,4.02,25.84
0.48,-0.47,0.91,13.14,0.72,21.39
0.51,-0.45,0.88,14.26,-2.32,16.94
0.55,-0.44,0.86,15.39,-4.94,12.63
0.57,-0.42,0.84,16.75,-6.97,8.65
0.57,-0.42,0.84,16.75,-6.97,8.65
0.57,-0.39,0.83,18.42,-8.41,5.17
0.56,-0.36,0.82,20.37,-9.45,2.11
0.55,-0.33,0.82,22.34,-10.31,-0.66
0.56,-0.31,0.83,24.03,-11.09,-3.13
0.57,-0.3,0.83,25.29,-11.79,-5.27
0.57,-0.3,0.83,25.29,-11.79,-5.27
0.57,-0.29,0.82,26.03,-12.45,-7.1
0.56,-0.28,0.81,26.25,-13.12,-8.65
0.56,-0.27,0.8,26.04,-13.93,-10.08
0.58,-0.27,0.79,25.48,-14.9,-11.44
0.6,-0.28,0.79,24.66,-15.87,-12.66
0.6,-0.28,0.79,24.66,-15.87,-12.66
0.61,-0.28,0.79,23.61,-16.72,-13.73
0.61,-0.27,0.77,22.29,-17.46,-14.77
0.62,-0.27,0.76,20.83,-18.14,-15.85
0.65,-0.29,0.77,19.39,-18.82,-16.98
0.69,-0.3,0.78,18.11,-19.28,-18.21
0.69,-0.3,0.78,18.11,-19.28,-18.21
0.72,-0.31,0.79,17.11,-19.16,-19.44
0.73,-0.32,0.81,16.5,-18.3,-20.58
0.73,-0.33,0.83,16.21,-16.76,-21.77
0.72,-0.34,0.85,16.09,-14.65,-23.1
0.71,-0.34,0.88,16.2,-12.16,-24.51
0.71,-0.34,0.88,16.2,-12.16,-24.51
0.69,-0.35,0.91,16.38,-9.56,-25.9
0.68,-0.36,0.93,16.4,-7.2,-27.14
0.67,-0.39,0.96,16.12,-5.3,-27.94
0.67,-0.42,1.0,15.47,-4.06,-28.15
0.67,-0.46,1.04,14.34,-3.47,-27.72
0.67,-0.46,1.04,14.34,-3.47,-27.72
0.64,-0.49,1.07,12.76,-3.6,-26.74
0.6,-0.52,1.09,10.83,-4.58,-25.45
0.59,-0.56,1.11,8.5,-6.47,-24.18
0.58,-0.58,1.12,5.65,-9.13,-23.23
0.57,-0.6,1.13,2.22,-12.36,-22.9
0.57,-0.6,1.13,2.22,-12.36,-22.9
0.55,-0.6,1.12,-1.7,-15.98,-23.63
0.54,-0.62,1.1,-6.13,-19.86,-25.78
0.57,-0.65,1.08,-11.13,-23.87,-29.29
0.62,-0.69,1.07,-16.46,-27.6,-33.64
0.66,-0.71,1.04,-21.63,-30.62,-38.54
0.66,-0.71,1.04,-21.63,-30.62,-38.54
0.67,-0.71,0.99,-26.32,-32.82,-44.06
0.68,-0.69,0.97,-30.24,-34.28,-50.27
0.71,-0.67,0.99,-33.31,-34.88,-57.02
0.71,-0.64,1.0,-35.75,-34.49,-64.14
0.71,-0.58,0.98,-37.96,-33.23,-71.49
0.71,-0.58,0.98,-37.96,-33.23,-71.49
0.7,-0.53,0.97,-40.21,-31.59,-78.92
0.68,-0.5,0.97,-42.62,-30.01,-86.21
0.67,-0.46,0.94,-45.17,-28.88,-93.06
0.66,-0.4,0.92,-47.78,-28.53,-99.34
0.67,-0.34,0.92,-50.24,-29.16,-104.84
0.67,-0.34,0.92,-50.24,-29.16,-104.84
0.69,-0.28,0.94,-52.67,-30.73,-109.4
0.7,-0.2,0.93,-55.52,-33.1,-112.85
0.7,-0.12,0.92,-59.09,-36.29,-115.16
0.71,-0.06,0.93,-63.8,-40.31,-116.43
0.72,-0.02,0.96,-70.25,-44.9,-116.77
0.72,-0.02,0.96,-70.25,-44.9,-116.77
0.73,0.03,0.95,-78.8,-49.36,-116.56
0.72,0.08,0.87,-89.1,-53.28,-116.53
0.72,0.1,0.77,-100.2,-56.62,-117.36
0.74,0.09,0.68,-110.92,-59.04,-119.19
0.75,0.1,0.59,-120.03,-60.23,-121.74
0.75,0.1,0.59,-120.03,-60.23,-121.74
0.77,0.13,0.5,-126.51,-60.1,-124.6
0.79,0.18,0.44,-129.75,-58.66,-127.43
0.79,0.25,0.43,-129.59,-55.99,-129.83
0.76,0.32,0.45,-126.68,-52.22,-131.34
0.7,0.4,0.46,-121.88,-47.69,-131.58
0.7,0.4,0.46,-121.88,-47.69,-131.58
0.65,0.48,0.46,-115.86,-43.14,-130.37
0.61,0.57,0.47,-109.18,-39.47,-127.71
0.6,0.67,0.48,-102.47,-36.93,-124.01
0.62,0.77,0.49,-96.38,-35.55,-119.93
0.66,0.86,0.52,-91.41,-35.09,-115.88
0.66,0.86,0.52,-91.41,-35.09,-115.88
0.71,0.93,0.54,-88.07,-35.1,-111.73
0.75,0.98,0.55,-86.74,-35.03,-107.24
0.8,1.03,0.56,-87.3,-34.18,-102.35
0.87,1.04,0.58,-89.34,-32.18,-97.04
0.95,1.03,0.63,-92.5,-28.78,-91.07
0.95,1.03,0.63,-92.5,-28.78,-91.07
1.0,0.99,0.68,-96.84,-23.55,-83.97
0.96,0.95,0.69,-102.3,-16.4,-75.88
0.88,0.9,0.67,-108.29,-8.27,-67.54
0.79,0.86,0.65,-113.85,-0.58,-59.79
0.72,0.81,0.62,-118.02,5.28,-52.93
0.72,0.81,0.62,-118.02,5.28,-52.93
0.71,0.77,0.59,-120.12,8.79,-47.11
0.74,0.74,0.56,-119.97,10.31,-42.55
0.8,0.72,0.54,-117.7,10.48,-39.15
0.86,0.7,0.56,-113.84,9.93,-36.52
0.92,0.69,0.58,-108.97,9.38,-34.34
0.92,0.69,0.58,-108.97,9.38,-34.34
0.94,0.7,0.59,-103.58,9.42,-32.59
0.95,0.71,0.6,-98.08,10.18,-31.28
0.96,0.72,0.62,-92.89,11.39,-30.22
0.95,0.73,0.65,-88.39,12.93,-29.27
0.94,0.74,0.66,-84.78,14.8,-28.48
0.94,0.74,0.66,-84.78,14.8,-28.48
0.92,0.74,0.66,-82.11,16.82,-27.92
0.91,0.71,0.64,-80.17,18.68,-27.6
0.92,0.66,0.63,-78.65,20.1,-27.34
0.93,0.6,0.63,-77.29,21.02,-26.64
0.94,0.55,0.63,-75.77,21.57,-25.25
0.94,0.55,0.63,-75.77,21.57,-25.25
0.93,0.52,0.63,-73.75,21.74,-23.25
0.91,0.49,0.63,-71.08,21.4,-20.94
0.89,0.48,0.63,-67.71,20.51,-18.74
0.88,0.47,0.64,-63.74,19.19,-16.95
0.87,0.46,0.64,-59.36,17.63,-15.77
0.87,0.46,0.64,-59.36,17.63,-15.77
0.87,0.46,0.64,-54.7,16.0,-15.25
0.88,0.46,0.64,-49.86,14.31,-15.24
0.91,0.45,0.64,-44.99,12.67,-15.44
0.95,0.43,0.65,-40.34,11.18,-15.52
0.97,0.41,0.65,-36.14,9.98,-15.21
0.97,0.41,0.65,-36.14,9.98,-15.21
0.98,0.4,0.65,-32.4,9.2,-14.54
0.97,0.39,0.65,-29.05,8.79,-13.76
0.97,0.38,0.64,-25.95,8.67,-13.04
0.95,0.36,0.65,-23.0,8.81,-12.4
0.94,0.34,0.64,-20.23,9.09,-11.87
0.94,0.34,0.64,-20.23,9.09,-11.87
0.93,0.33,0.63,-17.55,9.38,-11.52
0.92,0.32,0.62,-14.82,9.52,-11.33
0.93,0.31,0.61,-11.9,9.44,-11.16
0.94,0.29,0.61,-8.8,9.1,-10.79
0.96,0.28,0.61,-5.64,8.59,-10.11
0.96,0.28,0.61,-5.64,8.59,-10.11
0.97,0.28,0.61,-2.56,8.01,-9.19
0.99,0.29,0.62,0.37,7.48,-8.18
1.0,0.29,0.64,3.06,7.09,-7.23
1.0,0.29,0.65,5.4,6.93,-6.42
0.97,0.29,0.65,7.46,6.94,-5.82
0.97,0.29,0.65,7.46,6.94,-5.82
0.94,0.31,0.65,9.3,6.91,-5.49
0.92,0.32,0.64,11.0,6.54,-5.48
0.91,0.33,0.63,12.62,5.71,-5.74
0.92,0.34,0.63,14.1,4.49,-6.13
0.94,0.35,0.61,15.48,3.03,-6.42
0.94,0.35,0.61,15.48,3.03,-6.42
0.96,0.36,0.6,16.98,1.56,-6.58
0.98,0.37,0.58,18.8,0.32,-6.63
0.99,0.38,0.57,20.99,-0.49,-6.6
1.0,0.4,0.55,23.49,-0.86,-6.48
1.0,0.43,0.54,26.28,-0.86,-6.23
1.0,0.43,0.54,26.28,-0.86,-6.23
1.0,0.47,0.52,29.34,-0.64,-5.91
1.0,0.51,0.51,32.61,-0.28,-5.56
1.0,0.55,0.5,35.9,0.17,-5.01
1.01,0.59,0.5,39.07,0.74,-4.04
1.02,0.62,0.49,42.06,1.26,-2.44
1.02,0.62,0.49,42.06,1.26,-2.44
1.02,0.66,0.49,44.74,1.72,-0.13
1.02,0.71,0.48,47.06,2.16,2.78
1.0,0.77,0.47,48.96,2.53,6.0
0.98,0.83,0.46,50.39,2.78,9.17
0.98,0.88,0.43,51.4,2.78,12.07
0.98,0.88,0.43,51.4,2.78,12.07
0.99,0.91,0.41,51.97,2.23,14.85
1.01,0.92,0.41,52.04,1.12,17.77
1.05,0.91,0.4,51.58,-0.34,21.06
1.08,0.87,0.38,50.57,-1.92,24.91
1.1,0.83,0.38,49.22,-3.26,29.11
1.1,0.83,0.38,49.22,-3.26,29.11
1.12,0.8,0.37,48.11,-3.83,33.17
1.11,0.77,0.38,47.94,-3.27,36.79
1.08,0.76,0.4,49.04,-1.56,39.75
1.05,0.76,0.43,51.28,0.74,41.91
1.02,0.76,0.48,54.28,3.17,43.36
1.02,0.76,0.48,54.28,3.17,43.36
1.0,0.76,0.53,57.62,5.58,44.32
0.96,0.75,0.57,60.78,7.89,45.11
0.91,0.73,0.61,63.32,9.88,45.85
0.89,0.7,0.65,65.18,11.36,46.58
0.89,0.7,0.65,66.44,12.45,47.63
0.86,0.66,0.68,66.44,12.45,47.63
0.82,0.62,0.72,67.25,13.31,49.28
0.78,0.58,0.76,67.6,14.08,51.5
0.75,0.53,0.8,67.35,14.78,54.05
0.74,0.49,0.83,66.39,15.69,56.83
0.74,0.49,0.83,64.76,17.12,59.81
0.74,0.44,0.87,64.76,17.12,59.81
0.73,0.38,0.9,62.49,19.1,62.9
0.73,0.31,0.91,59.62,21.45,65.98
0.71,0.24,0.91,56.47,24.02,69.01
0.68,0.17,0.94,53.64,26.54,71.89
0.68,0.17,0.94,53.64,26.54,71.89
0.64,0.09,0.98,51.33,28.69,74.32
0.62,0.01,1.0,49.32,30.46,75.91
0.62,-0.06,1.0,47.56,31.9,76.64
0.62,-0.12,1.01,46.26,32.9,76.75
0.61,-0.17,1.01,45.7,33.42,76.42
0.61,-0.17,1.01,45.7,33.42,76.42
0.59,-0.22,1.02,45.91,33.48,75.76
0.59,-0.25,1.03,46.79,33.25,74.76
0.57,-0.27,1.03,48.27,32.82,73.56
0.55,-0.28,1.03,50.17,32.03,72.26
0.52,-0.28,1.03,52.1,30.94,70.73
0.52,-0.28,1.03,52.1,30.94,70.73
0.53,-0.29,1.03,53.64,29.63,68.94
0.58,-0.29,1.02,54.46,28.14,67.2
0.62,-0.3,1.01,54.46,26.79,65.68
0.64,-0.31,0.99,53.66,25.79,64.4
0.64,-0.31,0.98,52.13,25.11,63.4
0.64,-0.31,0.98,52.13,25.11,63.4
0.64,-0.32,0.97,49.93,24.67,62.54
0.65,-0.34,0.96,47.08,24.42,61.64
0.65,-0.37,0.94,43.72,24.34,60.59
0.65,-0.39,0.93,40.06,24.37,59.26
0.62,-0.42,0.91,36.49,24.31,57.48
0.62,-0.42,0.91,36.49,24.31,57.48
0.59,-0.45,0.89,33.48,24.06,54.97
0.57,-0.47,0.86,31.4,23.36,51.73
0.58,-0.47,0.82,30.63,22.11,47.94
0.61,-0.44,0.81,31.56,20.43,43.88
0.64,-0.39,0.82,34.04,18.62,40.0
0.64,-0.39,0.82,34.04,18.62,40.0
0.67,-0.33,0.86,37.23,16.84,36.7
0.69,-0.27,0.89,39.5,15.27,34.19
0.72,-0.22,0.92,39.87,13.75,32.27
0.66,-0.25,0.84,38.77,12.54,31.68
0.74,-0.22,0.89,38.78,10.73,30.12
0.74,-0.22,0.89,38.78,10.73,30.12
0.68,-0.1,0.9,35.47,10.31,29.49
0.68,-0.24,0.82,31.19,8.09,28.22
0.73,-0.39,0.7,30.5,6.33,25.72
0.72,-0.35,0.79,32.36,5.25,24.24
0.72,-0.23,0.88,34.71,4.52,23.57
0.72,-0.23,0.88,34.71,4.52,23.57
0.71,-0.13,0.89,35.65,3.92,23.92
0.69,-0.11,0.88,34.13,2.81,24.12
0.72,-0.18,0.84,30.77,1.01,22.99
0.74,-0.22,0.79,28.0,-1.12,21.5
0.73,-0.21,0.77,26.21,-3.22,20.4
0.73,-0.21,0.77,26.21,-3.22,20.4
0.74,-0.21,0.76,25.19,-5.55,19.29
0.76,-0.2,0.76,24.9,-7.93,18.32
0.79,-0.16,0.76,24.55,-9.93,17.78
0.8,-0.1,0.76,23.54,-11.22,17.56
0.81,-0.08,0.76,21.74,-11.83,17.11
0.81,-0.08,0.76,21.74,-11.83,17.11
