ax,ay,az,gx,gy,gz
0.02,0.19,0.97,-0.45,-3.86,-7.3
0.03,0.19,0.97,0.28,-5.08,-6.79
0.04,0.2,0.97,0.91,-6.41,-6.19
0.04,0.2,0.97,0.91,-6.41,-6.19
0.04,0.21,0.96,1.24,-7.67,-5.61
0.05,0.21,0.96,1.12,-8.72,-5.21
0.06,0.2,0.96,0.62,-9.45,-5.07
0.08,0.18,0.95,-0.12,-9.8,-5.09
0.1,0.17,0.94,-0.89,-9.68,-5.11
0.1,0.17,0.94,-0.89,-9.68,-5.11
0.09,0.16,0.93,-1.41,-9.05,-5.01
0.08,0.16,0.93,-1.71,-8.07,-4.86
0.08,0.16,0.93,-1.9,-6.88,-4.86
0.08,0.17,0.92,-2.05,-5.63,-5.0
0.08,0.16,0.93,-2.01,-4.45,-5.22
0.08,0.16,0.93,-2.01,-4.45,-5.22
0.07,0.16,0.93,-1.79,-3.49,-5.39
0.06,0.17,0.94,-1.38,-2.84,-5.35
0.05,0.16,0.94,-0.9,-2.58,-5.06
0.03,0.15,0.95,-0.24,-2.66,-4.65
0.02,0.16,0.97,0.54,-3.04,-4.02
0.02,0.16,0.97,0.54,-3.04,-4.02
-0.01,0.18,0.97,1.03,-3.84,-3.33
-0.0,0.19,0.98,1.38,-4.94,-3.5
0.02,0.17,0.99,1.67,-6.03,-4.34
0.02,0.18,1.0,1.84,-6.84,-4.74
0.03,0.21,1.01,1.3,-7.38,-5.07
0.03,0.21,1.01,1.3,-7.38,-5.07
0.06,0.22,1.0,-0.12,-7.69,-5.89
0.08,0.19,0.99,-2.17,-7.62,-6.87
0.09,0.15,0.97,-4.33,-7.13,-7.52
0.09,0.13,0.96,-6.23,-6.31,-7.88
0.09,0.11,0.95,-7.61,-5.34,-8.01
0.09,0.11,0.95,-7.61,-5.34,-8.01
0.08,0.08,0.95,-8.26,-4.32,-8.07
0.06,0.05,0.94,-8.03,-3.43,-8.1
0.05,0.05,0.94,-6.91,-2.81,-8.1
0.04,0.07,0.96,-5.03,-2.63,-8.07
0.04,0.09,0.97,-2.78,-2.86,-8.06
0.04,0.09,0.97,-2.78,-2.86,-8.06
0.03,0.13,0.99,-0.66,-3.44,-8.14
0.02,0.16,1.0,0.88,-4.34,-8.4
0.02,0.19,1.0,1.64,-5.43,-8.87
0.02,0.21,1.0,1.56,-6.66,-9.54
0.03,0.22,1.0,0.69,-7.93,-10.37
0.03,0.22,1.0,0.69,-7.93,-10.37
0.04,0.22,1.0,-0.99,-9.11,-11.33
0.05,0.2,0.98,-3.35,-10.03,-12.26
0.06,0.17,0.96,-5.98,-10.55,-13.06
0.08,0.15,0.94,-8.39,-10.64,-13.71
0.09,0.12,0.93,-10.22,-10.34,-14.09
0.09,0.12,0.93,-10.22,-10.34,-14.09
0.08,0.1,0.93,-11.35,-9.7,-14.14
0.06,0.09,0.92,-11.73,-8.85,-14.01
0.05,0.09,0.92,-11.35,-8.04,-13.86
0.04,0.1,0.92,-10.35,-7.44,-13.76
0.02,0.12,0.93,-8.95,-7.01,-13.7
0.02,0.12,0.93,-8.95,-7.01,-13.7
0.01,0.16,0.95,-7.58,-6.85,-13.76
-0.0,0.19,0.96,-6.74,-7.03,-13.95
-0.0,0.21,0.97,-6.73,-7.55,-14.28
0.01,0.23,0.97,-7.65,-8.31,-14.69
0.02,0.23,0.98,-9.44,-9.09,-15.08
0.02,0.23,0.98,-9.44,-9.09,-15.08
0.02,0.22,0.98,-11.96,-9.65,-15.44
0.03,0.18,0.97,-14.93,-9.84,-15.81
0.0,0.17,0.95,-18.1,-9.63,-15.68
-0.01,0.15,0.92,-21.14,-9.49,-15.77
0.01,0.11,0.9,-23.26,-9.27,-16.46
0.01,0.11,0.9,-23.26,-9.27,-16.46
0.02,0.1,0.9,-24.16,-9.01,-16.76
0.02,0.13,0.91,-24.18,-8.72,-16.96
0.04,0.17,0.92,-23.77,-8.3,-17.43
0.05,0.19,0.93,-23.3,-7.75,-17.76
0.06,0.2,0.94,-22.93,-7.07,-17.85
0.06,0.2,0.94,-22.93,-7.07,-17.85
0.06,0.21,0.93,-22.61,-6.3,-17.72
0.06,0.21,0.93,-22.23,-5.48,-17.25
0.05,0.2,0.92,-21.75,-4.63,-16.45
0.04,0.2,0.92,-21.16,-3.76,-15.45
0.03,0.2,0.92,-20.31,-2.91,-14.41
0.03,0.2,0.92,-20.31,-2.91,-14.41
0.02,0.21,0.93,-19.3,-2.03,-13.35
0.01,0.23,0.93,-18.19,-1.19,-12.35
0.01,0.25,0.94,-17.01,-0.38,-11.49
0.01,0.28,0.94,-15.85,0.32,-10.65
0.02,0.32,0.96,-14.92,0.83,-9.84
0.02,0.32,0.96,-14.92,0.83,-9.84
0.02,0.35,0.96,-14.35,1.16,-8.94
0.03,0.37,0.97,-14.27,1.33,-7.91
0.03,0.38,0.96,-14.8,1.32,-6.65
0.04,0.39,0.95,-15.85,1.16,-5.09
0.06,0.4,0.94,-17.08,0.96,-3.32
0.06,0.4,0.94,-17.08,0.96,-3.32
0.08,0.41,0.92,-18.22,0.77,-1.4
0.11,0.43,0.9,-18.97,0.61,0.67
0.16,0.46,0.89,-19.11,0.48,2.87
0.22,0.49,0.89,-18.68,0.48,5.28
0.27,0.53,0.89,-17.9,0.71,8.02
0.27,0.53,0.89,-17.9,0.71,8.02
0.31,0.56,0.88,-16.91,1.35,11.23
0.33,0.59,0.89,-15.79,2.32,15.03
0.35,0.59,0.9,-14.68,3.61,19.48
0.36,0.58,0.9,-13.57,5.28,24.58
0.37,0.55,0.9,-12.34,7.2,30.35
0.37,0.55,0.9,-12.34,7.2,30.35
0.38,0.54,0.9,-10.79,9.3,36.76
0.38,0.51,0.92,-8.9,11.59,43.71
0.38,0.49,0.95,-6.74,14.14,51.01
0.37,0.47,0.98,-4.36,17.09,58.53
0.36,0.44,1.01,-1.76,20.54,66.12
0.36,0.44,1.01,-1.76,20.54,66.12
0.36,0.4,1.05,1.01,24.45,73.7
0.34,0.36,1.09,4.03,28.72,81.34
0.29,0.32,1.13,7.15,33.1,89.24
0.2,0.28,1.18,9.99,37.11,96.96
0.12,0.21,1.21,12.22,40.3,103.74
0.12,0.21,1.21,12.22,40.3,103.74
0.06,0.12,1.23,13.72,42.45,108.98
0.01,0.01,1.27,14.67,43.55,112.35
-0.04,-0.11,1.3,15.3,43.37,113.58
-0.07,-0.21,1.33,15.96,41.85,112.65
-0.11,-0.3,1.37,16.94,39.08,109.61
-0.11,-0.3,1.37,16.94,39.08,109.61
-0.16,-0.37,1.41,18.07,35.08,104.55
-0.18,-0.42,1.44,18.86,29.87,97.6
-0.2,-0.46,1.45,18.85,23.54,89.06
-0.19,-0.48,1.44,17.91,16.35,79.37
-0.18,-0.5,1.43,15.99,8.56,68.98
-0.18,-0.5,1.43,15.99,8.56,68.98
-0.17,-0.53,1.41,13.0,0.42,58.38
-0.17,-0.56,1.36,8.96,-7.8,47.91
-0.18,-0.59,1.29,4.2,-15.89,37.6
-0.19,-0.63,1.21,-0.69,-23.65,27.43
-0.21,-0.66,1.14,-5.1,-30.92,17.33
-0.21,-0.66,1.14,-5.1,-30.92,17.33
-0.23,-0.68,1.08,-8.65,-37.62,7.28
-0.25,-0.68,1.01,-11.43,-43.76,-2.85
-0.25,-0.67,0.94,-13.18,-48.95,-12.97
-0.27,-0.64,0.89,-13.6,-52.94,-22.97
-0.3,-0.58,0.86,-12.88,-55.8,-32.76
-0.3,-0.58,0.86,-12.88,-55.8,-32.76
-0.33,-0.51,0.83,-11.49,-57.4,-42.32
-0.35,-0.42,0.83,-10.02,-57.82,-51.54
-0.37,-0.34,0.84,-9.09,-57.11,-60.29
-0.4,-0.26,0.83,-9.26,-55.35,-68.45
-0.43,-0.19,0.82,-10.64,-52.74,-75.97
-0.43,-0.19,0.82,-10.64,-52.74,-75.97
-0.46,-0.13,0.81,-13.09,-49.47,-82.87
-0.48,-0.07,0.8,-16.52,-45.84,-89.04
-0.48,-0.02,0.78,-21.03,-42.28,-94.31
-0.48,0.02,0.77,-26.63,-39.23,-98.48
-0.47,0.04,0.75,-33.18,-36.83,-101.65
-0.47,0.04,0.75,-33.18,-36.83,-101.65
-0.45,0.03,0.7,-40.32,-35.08,-103.92
-0.41,0.01,0.66,-47.17,-33.95,-105.48
-0.38,0.01,0.62,-52.86,-33.28,-106.08
-0.37,0.03,0.59,-57.15,-33.03,-105.63
-0.36,0.08,0.59,-60.24,-33.16,-104.69
-0.36,0.08,0.59,-60.24,-33.16,-104.69
-0.33,0.14,0.59,-62.44,-33.52,-103.73
-0.31,0.19,0.6,-63.79,-33.56,-102.59
-0.28,0.25,0.63,-64.58,-32.74,-101.31
-0.25,0.31,0.64,-65.22,-30.79,-100.16
-0.2,0.35,0.65,-65.87,-27.6,-99.01
-0.2,0.35,0.65,-65.87,-27.6,-99.01
-0.14,0.39,0.65,-66.36,-23.2,-97.47
-0.07,0.44,0.66,-66.41,-17.75,-95.28
0.01,0.47,0.66,-65.82,-11.62,-92.39
0.1,0.51,0.66,-64.32,-5.04,-88.66
0.16,0.55,0.67,-61.64,1.86,-83.93
0.16,0.55,0.67,-61.64,1.86,-83.93
0.2,0.58,0.69,-57.5,8.92,-78.21
0.23,0.62,0.7,-51.77,15.84,-71.61
0.24,0.66,0.72,-44.52,22.37,-64.32
0.24,0.72,0.76,-36.0,28.2,-56.35
0.25,0.78,0.79,-26.51,33.09,-47.61
0.25,0.78,0.79,-26.51,33.09,-47.61
0.26,0.85,0.83,-16.56,37.03,-38.07
0.27,0.93,0.87,-6.73,40.1,-27.87
0.28,1.0,0.92,2.37,42.56,-17.21
0.28,1.05,0.97,10.18,44.71,-6.41
0.28,1.08,0.99,16.38,46.77,4.35
0.28,1.08,0.99,16.38,46.77,4.35
0.27,1.08,1.02,20.94,48.7,15.03
0.28,1.06,1.05,24.05,50.31,25.66
0.29,1.03,1.08,25.91,51.65,36.32
0.33,0.96,1.1,26.76,52.8,47.13
0.37,0.88,1.13,26.95,53.86,58.31
0.37,0.88,1.13,26.95,53.86,58.31
0.4,0.79,1.16,26.89,55.04,69.95
0.39,0.7,1.19,26.91,56.17,81.88
0.36,0.62,1.22,27.23,57.03,93.69
0.31,0.53,1.26,27.63,57.77,104.79
0.23,0.43,1.29,27.79,58.28,114.61
0.23,0.43,1.29,27.79,58.28,114.61
0.14,0.3,1.34,27.73,58.19,122.57
0.08,0.16,1.38,27.58,57.35,128.16
0.03,0.05,1.42,27.59,55.91,131.1
-0.01,-0.05,1.46,27.88,54.17,131.5
-0.06,-0.12,1.5,28.36,52.2,129.75
-0.06,-0.12,1.5,28.36,52.2,129.75
-0.11,-0.18,1.53,28.66,49.71,126.25
-0.17,-0.24,1.54,28.4,46.32,121.33
-0.21,-0.3,1.54,27.5,41.71,115.38
-0.23,-0.38,1.53,25.94,35.61,108.81
-0.24,-0.46,1.5,23.8,28.06,101.9
-0.24,-0.46,1.5,23.8,28.06,101.9
-0.25,-0.53,1.45,21.45,19.46,94.91
-0.25,-0.58,1.41,19.21,10.16,87.94
-0.24,-0.64,1.35,17.06,0.51,80.69
-0.24,-0.7,1.29,15.74,-8.82,73.49
-0.26,-0.73,1.24,15.43,-17.61,66.4
-0.26,-0.73,1.24,15.43,-17.61,66.4
-0.28,-0.73,1.21,15.53,-25.95,58.85
-0.28,-0.73,1.14,15.65,-33.88,50.61
-0.27,-0.71,1.06,15.84,-41.07,41.98
-0.27,-0.71,0.99,16.19,-47.44,33.09
-0.26,-0.7,0.94,16.9,-52.71,23.88
-0.26,-0.7,0.94,16.9,-52.71,23.88
-0.26,-0.67,0.89,17.64,-56.71,14.23
-0.24,-0.63,0.83,17.82,-59.64,4.43
-0.23,-0.59,0.77,17.55,-61.21,-4.94
-0.25,-0.55,0.74,17.16,-61.41,-13.8
-0.27,-0.5,0.73,16.38,-60.4,-22.5
-0.27,-0.5,0.73,16.38,-60.4,-22.5
-0.32,-0.42,0.72,14.85,-58.26,-31.18
-0.36,-0.35,0.7,12.04,-55.06,-39.89
-0.39,-0.29,0.66,7.88,-51.14,-48.36
-0.41,-0.25,0.62,2.83,-46.63,-56.46
-0.42,-0.21,0.6,-2.71,-41.74,-64.12
-0.42,-0.21,0.6,-2.71,-41.74,-64.12
-0.42,-0.16,0.59,-8.66,-36.85,-71.12
-0.42,-0.1,0.59,-15.08,-32.17,-77.33
-0.42,-0.05,0.59,-22.0,-27.61,-82.93
-0.4,-0.02,0.59,-29.4,-23.1,-88.09
-0.38,0.01,0.59,-37.31,-18.51,-92.38
-0.38,0.01,0.59,-37.31,-18.51,-92.38
-0.39,0.06,0.6,-45.66,-13.97,-95.67
-0.4,0.1,0.59,-54.34,-9.62,-98.39
-0.4,0.13,0.59,-63.1,-5.69,-100.87
-0.38,0.13,0.58,-71.69,-2.54,-102.92
-0.38,0.13,0.58,-79.56,-0.19,-103.63
-0.34,0.11,0.56,-79.56,-0.19,-103.63
-0.33,0.07,0.53,-85.67,1.55,-102.77
-0.24,-0.02,0.54,-88.16,3.39,-101.97
-0.23,0.02,0.6,-87.23,6.38,-99.02
-0.25,0.14,0.65,-85.06,9.17,-94.39
-0.25,0.14,0.65,-82.4,11.75,-90.63
-0.17,0.21,0.65,-82.4,11.75,-90.63
-0.04,0.25,0.66,-78.51,14.69,-87.36
0.09,0.32,0.7,-72.91,17.78,-83.53
0.19,0.45,0.76,-66.37,21.1,-78.99
0.29,0.54,0.8,-59.92,24.83,-74.36
0.29,0.54,0.8,-59.92,24.83,-74.36
0.35,0.59,0.81,-52.86,29.23,-68.94
0.35,0.63,0.82,-44.57,34.41,-62.0
0.29,0.68,0.85,-35.06,40.23,-53.69
0.24,0.75,0.89,-24.27,46.41,-45.29
0.23,0.85,0.93,-12.25,52.83,-37.55
0.23,0.85,0.93,-12.25,52.83,-37.55
0.23,0.95,0.99,0.18,59.58,-30.06
0.24,1.09,1.06,12.28,66.23,-22.2
0.28,1.22,1.13,22.93,72.87,-13.19
0.22,1.38,1.18,30.3,79.36,-1.67
0.17,1.39,1.26,34.76,84.8,8.91
0.17,1.39,1.26,34.76,84.8,8.91
0.12,1.27,1.28,37.51,88.89,18.64
-0.04,1.21,1.3,39.62,90.77,30.29
-0.14,1.22,1.39,41.03,89.58,41.81
-0.13,1.17,1.47,39.84,85.91,50.82
-0.11,1.03,1.52,35.8,80.72,58.68
-0.11,1.03,1.52,35.8,80.72,58.68
-0.09,0.86,1.55,29.85,74.61,65.63
-0.1,0.7,1.58,22.84,67.73,71.97
-0.11,0.56,1.59,15.24,60.3,78.02
-0.13,0.38,1.58,7.76,52.59,83.33
-0.14,0.19,1.56,1.33,44.75,87.51
-0.14,0.19,1.56,1.33,44.75,87.51
-0.15,0.01,1.54,-3.39,36.82,90.68
-0.15,-0.15,1.5,-5.97,28.87,93.08
-0.16,-0.27,1.46,-6.18,20.89,94.74
-0.19,-0.38,1.44,-4.08,12.73,95.39
-0.2,-0.46,1.44,-0.51,4.37,94.74
-0.2,-0.46,1.44,-0.51,4.37,94.74
-0.21,-0.53,1.41,3.62,-4.19,93.09
-0.21,-0.6,1.38,8.03,-12.8,91.05
-0.23,-0.67,1.36,12.51,-21.48,88.67
-0.28,-0.72,1.32,16.81,-30.04,85.48
-0.33,-0.78,1.28,20.68,-38.61,80.88
-0.33,-0.78,1.28,20.68,-38.61,80.88
-0.36,-0.82,1.24,23.98,-47.23,74.64
-0.35,-0.83,1.18,26.23,-56.06,67.34
-0.34,-0.83,1.11,27.34,-64.98,59.74
-0.31,-0.83,1.03,27.74,-73.78,51.77
-0.29,-0.81,0.97,27.62,-81.89,42.98
-0.29,-0.81,0.97,27.62,-81.89,42.98
-0.25,-0.81,0.9,26.83,-89.23,33.18
-0.21,-0.83,0.83,25.71,-95.31,23.17
-0.19,-0.84,0.76,24.79,-99.73,13.79
-0.19,-0.81,0.73,24.04,-102.66,4.9
-0.2,-0.73,0.73,22.88,-104.01,-4.39
-0.2,-0.73,0.73,22.88,-104.01,-4.39
-0.21,-0.67,0.72,20.51,-103.65,-14.84
-0.22,-0.63,0.7,17.0,-101.39,-25.78
-0.28,-0.56,0.66,12.9,-97.18,-36.41
-0.33,-0.48,0.63,8.48,-91.52,-47.37
-0.37,-0.37,0.64,3.81,-84.67,-58.73
-0.37,-0.37,0.64,3.81,-84.67,-58.73
-0.41,-0.25,0.66,-1.43,-77.02,-69.83
-0.43,-0.14,0.69,-8.03,-69.25,-81.0
-0.41,-0.06,0.69,-16.79,-62.05,-92.46
-0.37,-0.02,0.68,-27.71,-55.8,-103.02
-0.35,0.01,0.66,-39.93,-50.52,-111.32
-0.35,0.01,0.66,-39.93,-50.52,-111.32
-0.35,0.02,0.65,-52.33,-46.08,-116.96
-0.38,0.03,0.65,-64.01,-42.28,-120.2
-0.43,0.06,0.65,-74.19,-39.07,-121.37
-0.49,0.1,0.65,-82.31,-36.54,-121.0
-0.54,0.16,0.67,-88.13,-34.62,-119.74
-0.54,0.16,0.67,-88.13,-34.62,-119.74
-0.55,0.22,0.68,-91.76,-33.11,-117.95
-0.49,0.27,0.69,-93.64,-31.86,-115.54
-0.4,0.32,0.71,-94.16,-30.77,-112.15
-0.29,0.36,0.72,-93.51,-29.35,-107.63
-0.19,0.41,0.72,-91.4,-27.17,-102.23
-0.19,0.41,0.72,-91.4,-27.17,-102.23
-0.1,0.49,0.71,-87.35,-23.97,-96.33
-0.01,0.58,0.7,-81.28,-19.98,-90.38
0.08,0.7,0.72,-73.38,-15.45,-84.61
0.18,0.82,0.75,-64.09,-10.45,-78.88
0.24,0.94,0.8,-53.71,-4.59,-72.6
0.24,0.94,0.8,-53.71,-4.59,-72.6
0.25,1.04,0.87,-42.74,2.46,-65.0
0.19,1.12,0.92,-32.1,10.59,-55.74
0.1,1.16,0.94,-22.23,19.33,-45.18
0.02,1.17,0.97,-12.82,27.52,-33.92
-0.01,1.19,1.01,-3.38,34.22,-22.27
-0.01,1.19,1.01,-3.38,34.22,-22.27
0.01,1.26,1.06,6.13,39.05,-10.55
0.07,1.34,1.13,14.82,42.28,0.8
0.15,1.42,1.2,21.45,44.07,11.48
0.21,1.43,1.27,25.22,44.73,21.44
0.28,1.37,1.33,25.67,44.77,30.89
0.28,1.37,1.33,25.67,44.77,30.89
0.32,1.23,1.36,22.73,44.77,40.36
0.34,1.02,1.37,17.18,44.8,50.34
0.33,0.78,1.38,10.6,44.76,60.7
0.31,0.54,1.41,4.44,44.37,70.95
0.28,0.35,1.44,-0.55,43.32,80.54
0.28,0.35,1.44,-0.55,43.32,80.54
0.29,0.17,1.51,-4.24,41.81,88.98
0.17,0.07,1.54,-7.7,39.85,97.92
0.12,-0.19,1.46,-9.66,36.03,104.28
0.09,-0.49,1.4,-6.88,31.73,107.88
-0.01,-0.65,1.53,-0.53,26.18,110.24
-0.01,-0.65,1.53,-0.53,26.18,110.24
-0.07,-0.69,1.58,6.0,19.1,111.71
-0.16,-0.65,1.54,11.61,10.78,113.05
-0.21,-0.74,1.52,16.69,0.82,112.23
-0.27,-0.83,1.55,21.32,-10.2,108.12
-0.25,-0.93,1.5,23.89,-22.17,101.3
-0.25,-0.93,1.5,23.89,-22.17,101.3
-0.22,-0.99,1.39,24.96,-34.34,94.59
-0.21,-1.01,1.32,25.05,-46.22,88.28
-0.18,-1.02,1.27,24.24,-57.25,80.3
-0.12,-1.03,1.2,22.52,-66.48,69.85
-0.05,-1.06,1.09,19.91,-73.79,58.03
-0.05,-1.06,1.09,19.91,-73.79,58.03
-0.02,-1.09,0.99,16.65,-79.42,46.27
-0.0,-1.1,0.88,13.44,-83.16,34.79
0.01,-1.11,0.79,10.57,-85.13,23.65
0.01,-1.08,0.72,8.13,-85.72,13.42
-0.02,-1.01,0.67,6.12,-85.05,4.2
-0.02,-1.01,0.67,6.12,-85.05,4.2
-0.07,-0.95,0.63,4.81,-83.0,-4.6
-0.12,-0.88,0.6,4.63,-79.32,-13.73
-0.17,-0.82,0.58,5.48,-74.07,-23.36
-0.2,-0.75,0.57,7.37,-67.7,-33.29
-0.25,-0.63,0.59,9.8,-60.36,-43.0
-0.25,-0.63,0.59,9.8,-60.36,-43.0
-0.31,-0.51,0.62,11.32,-52.93,-51.96
-0.37,-0.37,0.66,11.42,-46.2,-59.7
-0.43,-0.21,0.68,9.67,-40.19,-67.31
-0.41,-0.09,0.72,5.55,-35.36,-75.91
-0.36,-0.0,0.74,-1.39,-31.76,-84.33
-0.36,-0.0,0.74,-1.39,-31.76,-84.33
-0.33,0.05,0.73,-11.87,-29.19,-91.07
-0.33,0.05,0.7,-25.21,-27.19,-95.68
-0.35,-0.01,0.69,-39.15,-25.2,-98.29
-0.38,-0.05,0.69,-51.79,-22.75,-99.36
-0.43,-0.06,0.69,-61.96,-19.39,-99.14
-0.43,-0.06,0.69,-61.96,-19.39,-99.14
-0.51,-0.0,0.69,-69.65,-15.41,-98.19
-0.54,0.07,0.68,-75.57,-11.73,-97.47
-0.5,0.13,0.65,-79.93,-9.06,-97.08
-0.41,0.19,0.62,-81.75,-7.15,-96.17
-0.29,0.25,0.63,-80.29,-5.46,-94.42
-0.29,0.25,0.63,-80.29,-5.46,-94.42
-0.18,0.32,0.66,-75.79,-3.71,-91.59
-0.08,0.38,0.69,-69.2,-1.83,-87.28
0.01,0.43,0.72,-61.3,0.11,-81.15
0.07,0.47,0.75,-52.6,2.44,-73.0
0.11,0.5,0.77,-43.24,5.64,-63.28
0.11,0.5,0.77,-43.24,5.64,-63.28
0.14,0.56,0.78,-33.03,9.77,-52.55
0.15,0.64,0.8,-22.04,14.25,-41.61
0.17,0.74,0.82,-10.71,18.69,-31.37
0.21,0.84,0.86,0.43,22.88,-22.43
0.26,0.95,0.92,10.67,26.53,-14.94
0.26,0.95,0.92,10.67,26.53,-14.94
0.32,1.06,0.97,19.23,29.54,-8.64
0.37,1.16,1.02,25.79,32.03,-2.76
0.41,1.2,1.08,29.78,33.83,3.57
0.4,1.21,1.14,30.52,35.24,10.51
0.35,1.14,1.17,27.8,36.76,17.42
0.35,1.14,1.17,27.8,36.76,17.42
0.31,0.99,1.16,22.89,38.17,23.76
0.31,0.84,1.17,18.16,38.53,29.95
0.35,0.72,1.19,14.85,37.9,36.37
0.39,0.63,1.21,12.95,36.71,42.87
0.4,0.54,1.24,12.25,35.08,49.32
0.4,0.54,1.24,12.25,35.08,49.32
0.41,0.46,1.25,12.48,32.91,55.68
0.42,0.39,1.27,13.41,30.04,61.93
0.43,0.32,1.3,14.64,26.57,68.09
0.42,0.25,1.33,15.56,22.73,74.03
0.39,0.17,1.37,15.75,18.66,79.41
0.39,0.17,1.37,15.75,18.66,79.41
0.34,0.07,1.4,14.85,14.52,83.58
0.27,-0.04,1.44,12.53,10.24,85.78
0.26,-0.19,1.42,8.93,5.9,85.51
0.33,-0.4,1.41,5.28,2.23,83.6
0.34,-0.51,1.31,2.52,-0.12,83.71
0.34,-0.51,1.31,2.52,-0.12,83.71
0.25,-0.64,1.19,2.25,-2.38,84.94
0.1,-0.74,1.16,6.46,-3.76,83.07
0.01,-0.86,1.17,13.21,-5.27,76.14
0.01,-0.96,1.08,22.19,-7.03,67.02
-0.03,-0.96,1.08,33.85,-8.67,58.3
-0.03,-0.96,1.08,33.85,-8.67,58.3
-0.06,-0.9,1.17,46.36,-10.72,49.05
-0.05,-0.8,1.24,57.78,-12.58,39.63
-0.12,-0.65,1.28,65.95,-14.16,31.64
-0.22,-0.5,1.27,69.19,-16.47,24.07
-0.27,-0.44,1.22,67.23,-19.82,15.38
-0.27,-0.44,1.22,67.23,-19.82,15.38
-0.3,-0.44,1.14,61.3,-23.81,6.45
-0.35,-0.43,1.08,53.11,-27.85,-1.98
-0.36,-0.44,1.03,44.14,-31.49,-10.84
-0.33,-0.46,0.99,35.55,-34.18,-20.42
-0.33,-0.46,0.98,27.69,-35.47,-29.32
-0.33,-0.46,0.98,27.69,-35.47,-29.32
-0.37,-0.42,0.97,20.21,-35.19,-36.95
-0.4,-0.38,0.94,12.74,-33.79,-44.43
-0.39,-0.37,0.92,5.21,-31.73,-52.07
-0.39,-0.35,0.9,-2.1,-29.06,-59.08
-0.41,-0.31,0.9,-8.87,-25.78,-65.36
-0.41,-0.31,0.9,-8.87,-25.78,-65.36
-0.43,-0.28,0.9,-14.87,-22.06,-71.15
-0.46,-0.24,0.88,-20.23,-18.2,-76.5
-0.49,-0.2,0.84,-25.28,-14.68,-81.42
-0.5,-0.15,0.82,-30.15,-12.18,-85.96
-0.49,-0.1,0.8,-34.88,-11.03,-90.07
-0.49,-0.1,0.8,-34.88,-11.03,-90.07
-0.45,-0.06,0.79,-39.46,-11.1,-93.42
-0.4,-0.03,0.79,-43.89,-12.12,-95.74
-0.34,0.0,0.8,-48.33,-13.66,-96.88
-0.29,0.02,0.81,-53.09,-15.38,-96.71
-0.29,0.06,0.82,-58.17,-16.99,-95.27
-0.29,0.06,0.82,-58.17,-16.99,-95.27
-0.34,0.13,0.82,-63.35,-18.32,-93.49
-0.37,0.18,0.79,-68.45,-19.58,-92.81
-0.34,0.17,0.71,-72.45,-20.58,-93.17
-0.29,0.19,0.6,-73.85,-20.99,-93.27
-0.22,0.27,0.54,-71.63,-21.2,-93.03
-0.22,0.27,0.54,-71.63,-21.2,-93.03
-0.1,0.4,0.56,-65.74,-21.34,-92.91
0.05,0.54,0.62,-57.21,-21.24,-92.56
0.2,0.69,0.67,-47.5,-20.95,-90.75
0.31,0.82,0.68,-37.99,-20.19,-86.14
0.38,0.89,0.65,-29.28,-18.32,-78.55
0.38,0.89,0.65,-29.28,-18.32,-78.55
0.41,0.91,0.64,-21.74,-13.94,-68.65
0.41,0.91,0.69,-15.56,-6.76,-57.26
0.34,0.9,0.76,-10.33,2.78,-44.79
0.24,0.9,0.81,-5.26,13.3,-31.41
0.15,0.92,0.83,0.07,23.02,-17.66
0.15,0.92,0.83,0.07,23.02,-17.66
0.11,0.96,0.88,5.61,30.9,-4.45
0.11,1.01,0.95,10.63,36.99,7.34
0.13,1.03,1.01,14.2,41.58,17.38
0.17,1.01,1.05,16.17,44.61,26.04
0.23,0.98,1.1,16.65,45.84,34.21
0.23,0.98,1.1,16.65,45.84,34.21
0.29,0.93,1.15,15.48,45.38,42.54
0.34,0.85,1.17,12.59,43.76,51.24
0.36,0.73,1.19,8.41,41.46,60.34
0.36,0.59,1.21,3.82,38.68,69.71
0.35,0.45,1.23,-0.34,35.39,79.03
