ax,ay,az,gx,gy,gz
-0.09,0.14,0.98,-2.6,-2.64,-1.57
-0.09,0.14,0.98,-2.26,-2.31,-1.35
-0.1,0.14,0.98,-1.87,-2.05,-1.09
-0.1,0.14,0.98,-1.45,-1.85,-0.88
-0.1,0.14,0.98,-1.45,-1.85,-0.88
-0.09,0.14,0.98,-1.0,-1.68,-0.72
-0.09,0.15,0.98,-0.54,-1.54,-0.59
-0.09,0.15,0.98,-0.16,-1.46,-0.44
-0.1,0.15,0.98,0.09,-1.48,-0.32
-0.1,0.15,0.98,0.22,-1.66,-0.27
-0.1,0.15,0.98,0.22,-1.66,-0.27
-0.1,0.15,0.98,0.29,-1.92,-0.3
-0.09,0.15,0.99,0.27,-2.17,-0.4
-0.09,0.15,0.99,0.14,-2.47,-0.54
-0.09,0.15,0.99,-0.14,-2.78,-0.68
-0.09,0.15,0.99,-0.61,-3.06,-0.79
-0.09,0.15,0.99,-0.61,-3.06,-0.79
-0.08,0.15,0.99,-1.22,-3.26,-0.94
-0.08,0.14,0.99,-1.89,-3.35,-1.16
-0.08,0.14,0.99,-2.51,-3.29,-1.4
-0.08,0.13,0.98,-3.0,-3.03,-1.65
-0.08,0.13,0.99,-3.25,-2.55,-1.91
-0.08,0.13,0.99,-3.25,-2.55,-1.91
-0.08,0.13,0.98,-3.25,-1.87,-2.16
-0.09,0.13,0.98,-3.04,-1.12,-2.3
-0.1,0.14,0.98,-2.7,-0.45,-2.34
-0.11,0.14,0.98,-2.22,0.04,-2.28
-0.12,0.14,0.98,-1.6,0.34,-2.15
-0.12,0.14,0.98,-1.6,0.34,-2.15
-0.12,0.14,0.99,-0.83,0.36,-2.01
-0.12,0.15,0.99,0.02,0.14,-1.84
-0.12,0.16,1.0,0.84,-0.24,-1.64
-0.12,0.17,1.0,1.5,-0.74,-1.46
-0.12,0.18,1.0,1.86,-1.28,-1.28
-0.12,0.18,1.0,1.86,-1.28,-1.28
-0.12,0.18,1.01,1.81,-1.88,-1.11
-0.11,0.18,1.0,1.34,-2.55,-1.0
-0.11,0.17,1.0,0.55,-3.24,-0.97
-0.1,0.16,1.0,-0.46,-3.87,-1.1
-0.09,0.15,0.99,-1.51,-4.33,-1.29
-0.09,0.15,0.99,-1.51,-4.33,-1.29
-0.08,0.14,0.98,-2.49,-4.59,-1.48
-0.07,0.13,0.97,-3.29,-4.61,-1.69
-0.07,0.12,0.97,-3.83,-4.41,-1.89
-0.07,0.12,0.96,-4.02,-4.03,-2.07
-0.08,0.12,0.96,-3.86,-3.5,-2.21
-0.08,0.12,0.96,-3.86,-3.5,-2.21
-0.08,0.13,0.97,-3.39,-2.75,-2.39
-0.08,0.13,0.97,-2.68,-1.87,-2.55
-0.09,0.14,0.97,-1.98,-1.02,-2.6
-0.1,0.14,0.97,-1.4,-0.37,-2.54
-0.1,0.15,0.98,-0.96,-0.04,-2.38
-0.1,0.15,0.98,-0.96,-0.04,-2.38
-0.11,0.15,0.98,-0.6,0.07,-2.2
-0.11,0.15,0.98,-0.32,0.05,-2.05
-0.11,0.16,0.98,-0.15,-0.11,-2.0
-0.11,0.16,0.99,-0.1,-0.36,-2.03
-0.11,0.17,1.0,-0.26,-0.59,-2.13
-0.11,0.17,1.0,-0.26,-0.59,-2.13
-0.11,0.17,1.0,-0.66,-0.8,-2.25
-0.1,0.16,0.99,-1.25,-0.98,-2.4
-0.1,0.15,0.99,-1.96,-1.18,-2.58
-0.1,0.14,0.98,-2.66,-1.4,-2.74
-0.1,0.14,0.98,-3.2,-1.53,-2.92
-0.1,0.14,0.98,-3.2,-1.53,-2.92
-0.09,0.13,0.97,-3.51,-1.57,-3.11
-0.09,0.14,0.97,-3.61,-1.55,-3.29
-0.09,0.14,0.98,-3.52,-1.43,-3.48
-0.09,0.14,0.98,-3.34,-1.27,-3.64
-0.09,0.14,0.98,-3.15,-1.09,-3.76
-0.09,0.14,0.98,-3.15,-1.09,-3.76
-0.09,0.14,0.97,-2.96,-0.93,-3.85
-0.1,0.14,0.98,-2.73,-0.84,-3.83
-0.11,0.15,0.98,-2.48,-0.87,-3.73
-0.11,0.15,0.98,-2.25,-1.02,-3.61
-0.11,0.15,0.98,-1.99,-1.31,-3.49
-0.11,0.15,0.98,-1.99,-1.31,-3.49
-0.11,0.16,0.99,-1.82,-1.69,-3.32
-0.11,0.16,1.0,-1.77,-2.15,-3.13
-0.11,0.17,1.0,-1.87,-2.59,-2.94
-0.11,0.17,1.0,-2.15,-3.0,-2.79
-0.1,0.16,1.0,-2.55,-3.39,-2.65
-0.1,0.16,1.0,-2.55,-3.39,-2.65
-0.1,0.15,0.99,-2.99,-3.67,-2.52
-0.1,0.15,0.99,-3.38,-3.88,-2.4
-0.09,0.14,0.99,-3.62,-3.98,-2.3
-0.09,0.14,0.98,-3.67,-3.97,-2.17
-0.09,0.14,0.98,-3.52,-3.92,-2.01
-0.09,0.14,0.98,-3.52,-3.92,-2.01
-0.09,0.14,0.98,-3.21,-3.88,-1.81
-0.09,0.14,0.98,-2.76,-3.8,-1.58
-0.09,0.14,0.98,-2.25,-3.67,-1.4
-0.08,0.14,0.98,-1.73,-3.48,-1.26
-0.09,0.15,0.98,-1.23,-3.25,-1.19
-0.09,0.15,0.98,-1.23,-3.25,-1.19
-0.09,0.15,0.99,-0.88,-3.03,-1.07
-0.09,0.15,0.98,-0.71,-2.84,-0.97
-0.1,0.15,0.99,-0.73,-2.73,-0.95
-0.11,0.15,0.99,-0.86,-2.74,-0.97
-0.11,0.15,0.99,-1.08,-2.86,-1.03
-0.11,0.15,0.99,-1.08,-2.86,-1.03
-0.11,0.16,1.0,-1.43,-3.1,-1.13
-0.11,0.15,1.0,-1.87,-3.43,-1.26
-0.1,0.15,0.99,-2.38,-3.8,-1.42
-0.1,0.15,0.99,-2.94,-4.23,-1.53
-0.1,0.14,0.99,-3.47,-4.69,-1.61
-0.1,0.14,0.99,-3.47,-4.69,-1.61
-0.09,0.14,0.98,-3.86,-5.14,-1.67
-0.09,0.13,0.98,-4.08,-5.49,-1.68
-0.09,0.13,0.98,-4.06,-5.75,-1.6
-0.09,0.13,0.98,-3.83,-5.91,-1.51
-0.09,0.13,0.98,-3.38,-5.98,-1.39
-0.09,0.13,0.98,-3.38,-5.98,-1.39
-0.09,0.14,0.98,-2.83,-5.96,-1.25
-0.09,0.15,0.98,-2.22,-5.91,-1.1
-0.09,0.15,0.98,-1.7,-5.84,-0.99
-0.09,0.16,0.98,-1.32,-5.78,-0.96
-0.08,0.16,0.99,-1.15,-5.71,-0.98
-0.08,0.16,0.99,-1.15,-5.71,-0.98
-0.08,0.16,0.99,-1.19,-5.65,-1.06
-0.08,0.16,0.99,-1.41,-5.6,-1.1
-0.09,0.15,0.99,-1.79,-5.57,-1.1
-0.09,0.15,0.99,-2.24,-5.59,-1.07
-0.09,0.14,0.98,-2.66,-5.71,-1.05
-0.09,0.14,0.98,-2.66,-5.71,-1.05
-0.08,0.14,0.98,-2.95,-5.9,-1.01
-0.07,0.13,0.98,-3.11,-6.1,-0.9
-0.07,0.13,0.98,-3.14,-6.33,-0.74
-0.06,0.13,0.99,-3.06,-6.63,-0.55
-0.06,0.12,0.99,-2.9,-6.97,-0.35
-0.06,0.12,0.99,-2.9,-6.97,-0.35
-0.06,0.12,1.0,-2.72,-7.25,-0.27
-0.06,0.11,1.01,-2.48,-7.48,-0.33
-0.05,0.1,1.01,-2.17,-7.65,-0.5
-0.05,0.1,1.03,-1.86,-7.79,-0.72
-0.06,0.09,1.04,-1.7,-7.91,-1.07
-0.06,0.09,1.04,-1.7,-7.91,-1.07
-0.06,0.07,1.05,-1.71,-8.11,-1.57
-0.07,0.05,1.06,-1.85,-8.42,-2.24
-0.07,0.02,1.07,-2.0,-8.84,-3.08
-0.07,-0.01,1.08,-2.1,-9.29,-4.15
-0.09,-0.04,1.09,-2.02,-9.77,-5.46
-0.09,-0.04,1.09,-2.02,-9.77,-5.46
-0.11,-0.06,1.1,-1.61,-10.24,-7.18
-0.13,-0.07,1.1,-0.77,-10.71,-9.38
-0.16,-0.08,1.11,0.41,-11.28,-12.07
-0.17,-0.08,1.11,1.74,-11.99,-15.19
-0.19,-0.07,1.11,3.06,-12.88,-18.65
-0.19,-0.07,1.11,3.06,-12.88,-18.65
-0.22,-0.06,1.12,4.19,-13.91,-22.3
-0.24,-0.05,1.11,4.84,-15.17,-26.02
-0.26,-0.04,1.09,4.92,-16.66,-29.71
-0.26,-0.03,1.08,4.51,-18.36,-33.27
-0.29,-0.01,1.07,3.66,-20.13,-36.75
-0.29,-0.01,1.07,3.66,-20.13,-36.75
-0.33,-0.0,1.04,2.38,-21.9,-40.53
-0.36,0.0,1.0,0.87,-23.86,-45.02
-0.35,0.02,0.97,-0.54,-26.05,-50.21
-0.33,0.04,0.96,-1.77,-28.44,-55.69
-0.31,0.08,0.95,-3.05,-30.88,-61.12
-0.31,0.08,0.95,-3.05,-30.88,-61.12
-0.3,0.1,0.94,-4.6,-33.21,-66.5
-0.3,0.12,0.91,-6.56,-35.51,-71.84
-0.28,0.13,0.88,-8.74,-37.78,-77.15
-0.23,0.16,0.85,-10.84,-39.92,-82.06
-0.19,0.19,0.85,-12.7,-41.64,-85.81
-0.19,0.19,0.85,-12.7,-41.64,-85.81
-0.18,0.22,0.84,-14.43,-42.85,-87.79
-0.2,0.27,0.81,-16.39,-43.18,-87.65
-0.22,0.32,0.78,-18.77,-42.7,-85.58
-0.21,0.37,0.77,-21.65,-41.6,-82.06
-0.16,0.42,0.77,-25.2,-40.03,-77.62
-0.16,0.42,0.77,-25.2,-40.03,-77.62
-0.11,0.47,0.78,-29.27,-37.77,-72.52
-0.08,0.5,0.79,-33.39,-34.35,-66.88
-0.06,0.53,0.77,-37.32,-29.86,-60.76
-0.06,0.55,0.73,-40.8,-24.61,-54.01
-0.07,0.56,0.71,-43.31,-18.81,-46.42
-0.07,0.56,0.71,-43.31,-18.81,-46.42
-0.06,0.58,0.71,-45.01,-13.12,-38.16
-0.03,0.59,0.71,-45.93,-7.74,-29.57
0.03,0.59,0.72,-45.86,-2.66,-20.79
0.1,0.6,0.75,-44.75,2.18,-11.75
0.17,0.61,0.79,-42.74,6.95,-2.32
0.17,0.61,0.79,-42.74,6.95,-2.32
0.22,0.61,0.83,-39.93,11.89,7.5
0.23,0.61,0.88,-36.53,17.07,17.55
0.21,0.58,0.92,-32.86,22.21,27.35
0.19,0.54,0.97,-29.03,26.99,36.49
0.18,0.5,1.02,-25.04,31.2,44.61
0.18,0.5,1.02,-25.04,31.2,44.61
0.19,0.46,1.07,-20.91,34.77,51.45
0.21,0.43,1.11,-16.68,37.64,56.95
0.24,0.41,1.16,-12.47,39.79,61.29
0.26,0.39,1.2,-8.63,41.11,64.76
0.28,0.38,1.25,-5.69,41.37,67.57
0.28,0.38,1.25,-5.69,41.37,67.57
0.28,0.35,1.27,-3.91,40.68,69.62
0.29,0.31,1.28,-3.18,38.97,70.83
0.31,0.25,1.3,-3.31,36.25,71.25
0.31,0.21,1.32,-4.4,32.65,70.99
0.33,0.11,1.3,-6.53,28.17,70.17
0.33,0.11,1.3,-6.53,28.17,70.17
0.31,0.01,1.28,-8.25,23.6,69.46
0.27,-0.08,1.26,-9.14,18.91,68.74
0.23,-0.16,1.26,-8.85,13.99,67.22
0.2,-0.21,1.26,-7.29,9.19,64.97
0.16,-0.23,1.28,-4.51,4.71,62.24
0.16,-0.23,1.28,-4.51,4.71,62.24
0.11,-0.23,1.29,-1.13,0.63,58.75
0.07,-0.23,1.3,2.35,-2.9,54.37
0.04,-0.24,1.27,5.52,-6.0,49.75
-0.0,-0.26,1.24,8.08,-9.06,45.32
-0.03,-0.29,1.21,9.99,-12.29,41.04
-0.03,-0.29,1.21,9.99,-12.29,41.04
-0.06,-0.32,1.16,11.44,-15.72,36.94
-0.09,-0.37,1.12,12.5,-19.31,33.08
-0.13,-0.4,1.07,13.24,-22.96,29.39
-0.16,-0.44,1.03,13.68,-26.56,25.63
-0.18,-0.48,0.98,13.94,-30.11,21.48
-0.18,-0.48,0.98,13.94,-30.11,21.48
-0.18,-0.52,0.94,14.07,-33.52,16.99
-0.18,-0.54,0.92,14.13,-36.62,12.37
-0.19,-0.57,0.9,14.09,-39.16,7.68
-0.21,-0.58,0.88,13.87,-40.99,2.79
-0.23,-0.58,0.86,13.55,-41.96,-2.44
-0.23,-0.58,0.86,13.55,-41.96,-2.44
-0.26,-0.57,0.86,13.17,-41.91,-8.18
-0.29,-0.55,0.87,12.65,-40.66,-14.4
-0.33,-0.52,0.88,11.79,-38.09,-20.94
-0.36,-0.48,0.89,10.43,-34.46,-27.74
-0.39,-0.45,0.89,8.53,-30.11,-34.57
-0.39,-0.45,0.89,8.53,-30.11,-34.57
-0.42,-0.42,0.9,6.11,-25.41,-41.04
-0.46,-0.39,0.9,3.4,-20.71,-46.91
-0.5,-0.36,0.9,0.76,-16.33,-52.12
-0.52,-0.31,0.9,-1.53,-12.42,-56.75
-0.53,-0.25,0.9,-3.38,-9.0,-60.87
-0.53,-0.25,0.9,-3.38,-9.0,-60.87
-0.53,-0.18,0.9,-4.98,-6.24,-64.44
-0.52,-0.12,0.9,-6.71,-4.26,-67.46
-0.5,-0.06,0.89,-8.69,-3.05,-69.81
-0.47,-0.01,0.86,-10.94,-2.49,-71.55
-0.43,0.05,0.84,-13.19,-2.48,-72.81
-0.43,0.05,0.84,-13.19,-2.48,-72.81
-0.39,0.12,0.82,-15.09,-2.83,-73.66
-0.35,0.2,0.81,-16.53,-3.03,-74.09
-0.31,0.3,0.8,-17.66,-2.82,-74.16
-0.27,0.39,0.79,-18.76,-2.08,-73.94
-0.22,0.48,0.78,-19.98,-0.63,-73.32
-0.22,0.48,0.78,-19.98,-0.63,-73.32
-0.17,0.56,0.78,-21.58,1.49,-72.13
-0.15,0.63,0.78,-23.68,4.14,-70.14
-0.13,0.67,0.77,-26.34,7.13,-67.22
-0.12,0.7,0.75,-29.28,10.34,-63.31
-0.12,0.71,0.75,-31.83,13.63,-58.33
-0.12,0.71,0.75,-31.83,13.63,-58.33
-0.11,0.72,0.75,-33.35,16.84,-52.44
-0.08,0.73,0.76,-33.53,19.84,-45.72
-0.04,0.75,0.78,-32.32,22.53,-38.14
0.0,0.77,0.81,-29.89,24.89,-29.84
0.05,0.78,0.84,-26.55,27.06,-21.11
0.05,0.78,0.84,-26.55,27.06,-21.11
0.09,0.79,0.88,-22.46,29.37,-12.17
0.13,0.79,0.94,-17.83,32.07,-3.13
0.15,0.79,0.99,-13.25,35.25,5.79
0.14,0.77,1.03,-9.1,38.91,14.37
0.14,0.73,1.07,-5.66,42.74,22.44
0.14,0.73,1.07,-5.66,42.74,22.44
0.13,0.68,1.11,-3.06,46.39,30.06
0.12,0.63,1.14,-1.16,49.55,37.24
0.12,0.56,1.16,0.49,52.02,43.97
0.11,0.5,1.19,2.08,53.55,50.27
0.11,0.5,1.19,3.72,54.01,56.01
0.11,0.45,1.2,3.72,54.01,56.01
0.1,0.49,1.28,5.51,53.6,61.14
0.12,0.43,1.27,4.96,51.9,64.89
0.15,0.32,1.24,4.34,49.35,68.46
0.17,0.2,1.22,4.7,46.95,71.94
0.17,0.2,1.22,4.7,46.95,71.94
0.19,0.1,1.23,6.91,44.51,75.02
0.17,0.05,1.25,11.08,42.77,77.87
0.11,0.01,1.28,16.35,41.42,80.02
0.03,-0.02,1.3,21.5,40.05,80.77
-0.02,-0.04,1.3,25.84,37.87,80.18
-0.02,-0.04,1.3,25.84,37.87,80.18
-0.07,-0.06,1.3,29.23,34.61,78.55
-0.1,-0.08,1.32,31.48,30.11,76.1
-0.15,-0.1,1.32,32.62,24.43,73.08
-0.19,-0.11,1.31,32.89,17.82,69.53
-0.23,-0.12,1.3,32.44,10.38,65.35
-0.23,-0.12,1.3,32.44,10.38,65.35
-0.25,-0.13,1.29,31.29,2.28,60.59
-0.24,-0.15,1.28,29.39,-6.3,55.48
-0.24,-0.18,1.27,26.55,-15.24,50.4
-0.25,-0.22,1.24,22.73,-24.32,45.51
-0.27,-0.27,1.21,18.22,-33.36,40.7
-0.27,-0.27,1.21,18.22,-33.36,40.7
-0.28,-0.34,1.19,13.29,-42.01,35.86
-0.28,-0.41,1.14,8.23,-50.0,30.76
-0.28,-0.48,1.09,3.67,-56.91,25.69
-0.28,-0.51,1.07,0.29,-62.45,20.15
-0.27,-0.54,1.04,-2.28,-66.6,13.41
-0.27,-0.54,1.04,-2.28,-66.6,13.41
-0.25,-0.57,1.0,-3.98,-69.1,6.19
-0.25,-0.57,0.96,-4.77,-70.01,-0.79
-0.25,-0.57,0.94,-4.94,-69.91,-7.8
-0.26,-0.56,0.92,-4.84,-68.99,-14.94
-0.28,-0.54,0.91,-4.9,-67.46,-21.94
-0.28,-0.54,0.91,-4.9,-67.46,-21.94
-0.3,-0.53,0.88,-5.4,-65.58,-28.7
-0.31,-0.52,0.87,-6.11,-63.35,-35.29
-0.33,-0.5,0.87,-6.69,-60.57,-41.56
-0.35,-0.45,0.89,-7.05,-56.94,-47.48
-0.37,-0.39,0.89,-7.37,-52.5,-53.21
-0.37,-0.39,0.89,-7.37,-52.5,-53.21
-0.41,-0.33,0.91,-7.95,-47.56,-58.77
-0.44,-0.26,0.91,-9.19,-42.6,-64.22
-0.45,-0.19,0.91,-11.32,-38.09,-69.41
-0.46,-0.12,0.91,-14.44,-34.41,-73.85
-0.47,-0.06,0.91,-18.71,-31.91,-77.34
-0.47,-0.06,0.91,-18.71,-31.91,-77.34
-0.47,-0.02,0.88,-24.28,-30.8,-79.98
-0.45,-0.01,0.85,-30.67,-30.95,-81.84
-0.42,-0.0,0.83,-36.85,-31.8,-83.0
-0.37,0.02,0.82,-41.96,-32.58,-83.61
-0.33,0.08,0.81,-45.48,-32.73,-83.65
-0.33,0.08,0.81,-45.48,-32.73,-83.65
-0.3,0.16,0.81,-47.5,-32.06,-83.28
-0.27,0.24,0.81,-48.52,-30.56,-82.75
-0.23,0.33,0.81,-49.01,-28.3,-81.99
-0.19,0.4,0.81,-49.06,-25.21,-80.66
-0.18,0.45,0.81,-48.59,-21.12,-78.5
-0.18,0.45,0.81,-48.59,-21.12,-78.5
-0.18,0.48,0.8,-47.41,-16.08,-75.45
-0.18,0.5,0.77,-45.08,-10.4,-71.66
-0.18,0.53,0.76,-41.27,-4.47,-67.17
-0.16,0.58,0.76,-36.0,1.4,-61.96
-0.14,0.64,0.76,-29.59,6.92,-55.91
-0.14,0.64,0.76,-29.59,6.92,-55.91
-0.12,0.73,0.79,-22.59,11.88,-49.11
-0.09,0.82,0.82,-15.77,16.01,-41.83
-0.05,0.92,0.84,-9.88,19.23,-34.3
0.01,1.0,0.87,-5.66,21.55,-26.67
0.09,1.05,0.91,-3.77,23.08,-18.72
0.09,1.05,0.91,-3.77,23.08,-18.72
0.14,1.04,0.94,-4.74,24.05,-10.19
0.17,0.98,0.96,-8.53,24.83,-1.18
0.19,0.86,0.98,-14.24,25.57,7.82
0.21,0.74,1.0,-20.32,26.31,16.52
0.23,0.63,1.02,-25.54,27.28,24.82
0.23,0.63,1.02,-25.54,27.28,24.82
0.24,0.54,1.04,-29.32,28.52,32.48
0.25,0.46,1.06,-31.38,29.68,39.34
0.28,0.39,1.08,-31.48,30.48,45.04
0.34,0.31,1.12,-29.43,30.97,49.53
0.38,0.26,1.16,-25.45,31.52,53.96
0.38,0.26,1.16,-25.45,31.52,53.96
0.37,0.23,1.2,-20.11,31.99,59.08
0.31,0.26,1.29,-14.05,32.0,63.67
0.32,0.14,1.28,-9.14,30.99,66.5
0.3,0.05,1.28,-3.47,29.6,69.5
0.26,-0.0,1.33,2.64,27.58,72.12
0.26,-0.0,1.33,2.64,27.58,72.12
0.24,-0.04,1.36,8.64,24.95,73.21
0.22,-0.06,1.36,14.35,21.99,72.87
0.19,-0.08,1.37,19.12,18.36,71.51
0.16,-0.11,1.36,22.67,14.07,69.33
0.15,-0.13,1.35,25.2,9.26,66.54
0.15,-0.13,1.35,25.2,9.26,66.54
0.13,-0.15,1.36,26.91,4.3,63.34
0.09,-0.18,1.36,27.78,-0.5,59.97
0.03,-0.21,1.33,27.91,-4.99,56.44
-0.03,-0.25,1.29,27.64,-9.12,52.66
-0.07,-0.29,1.25,27.24,-13.02,48.59
-0.07,-0.29,1.25,27.24,-13.02,48.59
-0.1,-0.33,1.21,26.85,-16.83,44.33
-0.11,-0.37,1.18,26.6,-20.54,40.06
-0.13,-0.4,1.15,26.54,-24.05,35.88
-0.15,-0.44,1.11,26.71,-27.16,31.87
-0.17,-0.48,1.08,27.07,-29.77,27.93
-0.17,-0.48,1.08,27.07,-29.77,27.93
-0.19,-0.51,1.04,27.54,-31.78,23.83
-0.2,-0.55,1.01,28.05,-33.24,19.46
-0.2,-0.58,0.98,28.59,-34.07,14.8
-0.21,-0.6,0.95,29.22,-34.19,9.8
-0.23,-0.6,0.92,29.88,-33.55,4.43
-0.23,-0.6,0.92,29.88,-33.55,4.43
-0.25,-0.59,0.9,30.32,-32.34,-1.44
-0.28,-0.56,0.88,30.38,-30.72,-7.59
-0.32,-0.53,0.86,30.01,-28.83,-13.53
-0.36,-0.46,0.89,29.05,-26.88,-19.9
-0.37,-0.41,0.9,26.19,-25.08,-27.32
-0.37,-0.41,0.9,26.19,-25.08,-27.32
-0.39,-0.39,0.89,21.24,-23.4,-34.5
-0.42,-0.39,0.85,14.79,-21.78,-40.89
-0.41,-0.4,0.83,8.02,-20.29,-47.16
-0.4,-0.41,0.83,1.83,-18.51,-53.26
-0.4,-0.39,0.81,-3.67,-16.48,-58.73
-0.4,-0.39,0.81,-3.67,-16.48,-58.73
-0.41,-0.36,0.79,-8.66,-14.56,-63.6
-0.39,-0.34,0.76,-13.19,-13.23,-68.0
-0.36,-0.32,0.74,-17.06,-12.57,-71.68
-0.33,-0.3,0.73,-19.89,-12.22,-74.55
-0.31,-0.26,0.72,-21.48,-11.79,-76.78
-0.31,-0.26,0.72,-21.48,-11.79,-76.78
-0.29,-0.2,0.71,-21.72,-11.01,-78.66
-0.28,-0.13,0.73,-20.89,-9.75,-80.42
-0.28,-0.04,0.75,-19.39,-7.76,-82.04
-0.3,0.07,0.76,-17.56,-5.02,-83.56
-0.33,0.18,0.77,-15.77,-1.64,-85.07
-0.33,0.18,0.77,-15.77,-1.64,-85.07
-0.35,0.31,0.77,-14.35,2.18,-86.64
-0.35,0.43,0.78,-13.67,6.19,-88.16
-0.35,0.55,0.78,-13.81,10.24,-88.83
-0.37,0.68,0.77,-14.53,13.95,-87.62
-0.39,0.82,0.76,-15.69,16.7,-84.97
-0.39,0.82,0.76,-15.69,16.7,-84.97
-0.37,0.89,0.74,-17.79,17.81,-81.81
-0.33,0.92,0.74,-20.3,17.39,-76.89
-0.31,0.95,0.74,-23.01,16.19,-69.4
-0.26,0.96,0.75,-25.73,14.55,-60.25
-0.19,0.95,0.78,-28.21,13.08,-50.31
-0.19,0.95,0.78,-28.21,13.08,-50.31
-0.11,0.91,0.81,-30.16,12.61,-39.89
-0.05,0.88,0.85,-31.63,13.61,-29.18
-0.01,0.84,0.87,-32.82,16.07,-18.39
0.01,0.77,0.89,-33.78,19.56,-7.7
0.04,0.7,0.93,-34.37,23.54,2.53
0.04,0.7,0.93,-34.37,23.54,2.53
0.07,0.63,0.98,-34.24,27.79,12.01
0.09,0.58,1.05,-33.19,32.11,20.56
0.1,0.54,1.12,-31.35,36.45,28.33
0.09,0.5,1.18,-29.05,40.6,35.62
0.05,0.47,1.22,-26.7,44.17,42.77
0.05,0.47,1.22,-26.7,44.17,42.77
0.0,0.44,1.25,-24.39,46.53,49.71
-0.0,0.37,1.29,-21.54,47.25,55.09
0.05,0.28,1.33,-17.6,46.93,58.94
0.04,0.28,1.36,-13.26,45.99,63.32
-0.01,0.39,1.41,-9.75,43.71,67.87
-0.01,0.39,1.41,-9.75,43.71,67.87
0.07,0.29,1.38,-8.35,39.55,70.54
0.12,0.17,1.35,-6.11,35.19,73.64
0.13,0.1,1.37,-2.52,30.47,77.24
0.11,0.06,1.38,2.32,25.66,80.62
0.08,0.04,1.39,8.24,21.16,83.61
0.08,0.04,1.39,8.24,21.16,83.61
0.05,-0.0,1.39,14.22,16.52,85.82
0.03,-0.04,1.39,19.68,11.66,87.18
0.01,-0.08,1.37,24.47,6.57,87.5
-0.03,-0.12,1.35,28.99,1.41,86.66
-0.05,-0.15,1.33,33.35,-3.66,84.51
-0.05,-0.15,1.33,33.35,-3.66,84.51
-0.06,-0.15,1.32,37.3,-8.71,81.14
-0.07,-0.14,1.32,40.39,-13.7,76.9
-0.08,-0.14,1.31,42.07,-18.55,72.05
-0.1,-0.16,1.29,41.99,-23.2,66.74
-0.13,-0.2,1.26,40.04,-27.7,61.12
-0.13,-0.2,1.26,40.04,-27.7,61.12
-0.15,-0.24,1.21,36.47,-32.07,55.21
-0.17,-0.3,1.17,31.74,-36.15,49.02
-0.18,-0.36,1.12,26.49,-39.83,42.57
-0.19,-0.41,1.07,21.22,-42.98,35.96
-0.19,-0.46,1.03,16.34,-45.48,29.23
-0.19,-0.46,1.03,16.34,-45.48,29.23
-0.2,-0.5,0.98,12.19,-47.31,22.42
-0.2,-0.52,0.94,9.0,-48.39,15.5
-0.19,-0.53,0.91,6.66,-48.71,8.46
-0.19,-0.54,0.88,4.9,-48.38,1.38
-0.19,-0.53,0.85,3.59,-47.51,-5.57
-0.19,-0.53,0.85,3.59,-47.51,-5.57
-0.18,-0.51,0.82,2.67,-46.17,-12.33
-0.18,-0.48,0.8,1.8,-44.47,-18.91
-0.17,-0.46,0.78,0.45,-42.42,-25.34
-0.17,-0.42,0.77,-1.65,-39.94,-31.65
-0.18,-0.4,0.77,-4.81,-36.99,-38.16
-0.18,-0.4,0.77,-4.81,-36.99,-38.16
-0.18,-0.39,0.75,-8.84,-33.57,-44.74
-0.22,-0.39,0.74,-13.19,-29.43,-50.25
-0.27,-0.34,0.75,-16.75,-24.83,-55.49
-0.29,-0.3,0.78,-19.69,-19.69,-61.41
-0.32,-0.26,0.79,-22.43,-14.56,-66.69
-0.32,-0.26,0.79,-22.43,-14.56,-66.69
-0.37,-0.2,0.78,-24.96,-9.95,-70.6
-0.39,-0.14,0.78,-27.03,-6.56,-73.77
-0.4,-0.06,0.8,-28.46,-4.59,-76.31
-0.38,0.02,0.83,-29.53,-3.89,-78.06
-0.37,0.11,0.84,-30.57,-4.01,-78.84
-0.37,0.11,0.84,-30.57,-4.01,-78.84
-0.35,0.19,0.84,-31.68,-4.7,-78.7
-0.32,0.27,0.84,-32.75,-5.7,-77.86
-0.29,0.34,0.85,-33.61,-6.58,-76.44
-0.25,0.41,0.86,-34.35,-7.05,-74.48
-0.21,0.48,0.86,-35.11,-6.87,-71.8
-0.21,0.48,0.86,-35.11,-6.87,-71.8
-0.2,0.55,0.87,-35.84,-5.97,-68.24
-0.19,0.62,0.88,-36.57,-4.44,-64.09
-0.17,0.68,0.89,-37.47,-2.45,-59.78
-0.13,0.71,0.9,-38.63,-0.0,-55.08
