ax,ay,az,gx,gy,gz
-0.13,-0.44,0.83,-0.25,8.23,-2.92
-0.13,-0.47,0.82,-0.31,9.34,-2.96
-0.13,-0.5,0.82,0.18,9.86,-2.94
-0.16,-0.47,0.83,0.96,9.8,-2.09
-0.16,-0.47,0.83,0.96,9.8,-2.09
-0.17,-0.45,0.83,1.85,9.16,-1.29
-0.16,-0.45,0.84,2.67,7.98,-1.0
-0.16,-0.44,0.86,3.26,6.48,-0.57
-0.17,-0.44,0.86,3.56,4.86,-0.23
-0.18,-0.43,0.87,3.59,3.22,-0.18
-0.18,-0.43,0.87,3.59,3.22,-0.18
-0.17,-0.43,0.88,3.19,1.55,-0.44
-0.15,-0.43,0.88,2.22,0.07,-0.82
-0.14,-0.44,0.89,0.74,-1.11,-1.25
-0.13,-0.45,0.88,-1.06,-1.83,-1.84
-0.11,-0.47,0.87,-2.99,-2.06,-2.47
-0.11,-0.47,0.87,-2.99,-2.06,-2.47
-0.11,-0.49,0.86,-4.8,-1.77,-3.12
-0.1,-0.5,0.85,-6.25,-1.06,-3.78
-0.1,-0.52,0.83,-7.19,-0.08,-4.23
-0.1,-0.52,0.82,-7.53,1.02,-4.44
-0.1,-0.53,0.81,-7.11,2.13,-4.56
-0.1,-0.53,0.81,-7.11,2.13,-4.56
-0.11,-0.53,0.81,-5.84,3.18,-4.48
-0.12,-0.51,0.83,-3.9,4.09,-4.02
-0.13,-0.49,0.84,-1.71,4.71,-3.47
-0.14,-0.48,0.84,0.51,5.03,-3.17
-0.15,-0.47,0.85,2.62,5.01,-2.79
-0.15,-0.47,0.85,2.62,5.01,-2.79
-0.16,-0.45,0.86,4.41,4.59,-2.24
-0.16,-0.43,0.87,5.71,3.79,-1.8
-0.16,-0.42,0.88,6.44,2.66,-1.44
-0.15,-0.42,0.88,6.47,1.3,-1.2
-0.14,-0.42,0.87,5.87,-0.09,-1.02
-0.14,-0.42,0.87,5.87,-0.09,-1.02
-0.12,-0.43,0.87,4.84,-1.33,-0.92
-0.1,-0.44,0.86,3.54,-2.21,-0.9
-0.09,-0.45,0.85,2.06,-2.6,-0.93
-0.08,-0.46,0.84,0.55,-2.53,-1.0
-0.08,-0.48,0.82,-0.83,-1.94,-1.1
-0.08,-0.48,0.82,-0.83,-1.94,-1.1
-0.07,-0.5,0.81,-1.8,-0.9,-1.22
-0.08,-0.51,0.81,-2.25,0.5,-1.25
-0.09,-0.52,0.81,-2.14,2.02,-1.19
-0.1,-0.52,0.81,-1.45,3.48,-1.09
-0.11,-0.52,0.81,-0.23,4.72,-0.9
-0.11,-0.52,0.81,-0.23,4.72,-0.9
-0.12,-0.5,0.82,1.36,5.61,-0.61
-0.13,-0.49,0.83,3.09,6.05,-0.22
-0.13,-0.47,0.84,4.79,5.98,0.25
-0.15,-0.46,0.85,6.34,5.52,0.72
-0.16,-0.44,0.86,7.53,4.72,1.07
-0.16,-0.44,0.86,7.53,4.72,1.07
-0.15,-0.42,0.87,8.21,3.66,1.23
-0.14,-0.41,0.88,8.21,2.45,1.24
-0.13,-0.41,0.88,7.4,1.24,1.13
-0.12,-0.42,0.88,5.96,0.18,1.02
-0.12,-0.44,0.87,4.05,-0.6,0.81
-0.12,-0.44,0.87,4.05,-0.6,0.81
-0.11,-0.46,0.85,1.98,-0.99,0.41
-0.1,-0.47,0.85,-0.04,-0.91,-0.03
-0.1,-0.49,0.84,-1.87,-0.44,-0.53
-0.1,-0.51,0.82,-3.22,0.3,-1.09
-0.11,-0.52,0.81,-3.89,1.16,-1.6
-0.11,-0.52,0.81,-3.89,1.16,-1.6
-0.11,-0.52,0.81,-3.8,2.0,-2.05
-0.12,-0.51,0.82,-3.02,2.8,-2.39
-0.12,-0.49,0.83,-1.87,3.5,-2.63
-0.13,-0.48,0.83,-0.66,4.02,-2.75
-0.14,-0.47,0.84,0.48,4.3,-2.71
-0.14,-0.47,0.84,0.48,4.3,-2.71
-0.15,-0.47,0.84,1.49,4.29,-2.51
-0.16,-0.47,0.84,2.41,3.91,-2.26
-0.16,-0.46,0.84,3.27,3.21,-2.02
-0.16,-0.45,0.85,3.99,2.26,-1.76
-0.16,-0.44,0.85,4.43,1.23,-1.56
-0.16,-0.44,0.85,4.43,1.23,-1.56
-0.16,-0.44,0.85,4.5,0.22,-1.46
-0.16,-0.44,0.85,4.26,-0.6,-1.48
-0.16,-0.43,0.85,3.7,-1.16,-1.57
-0.15,-0.43,0.84,2.83,-1.48,-1.67
-0.15,-0.44,0.83,1.77,-1.62,-1.8
-0.15,-0.44,0.83,1.77,-1.62,-1.8
-0.14,-0.45,0.83,0.74,-1.67,-1.86
-0.14,-0.46,0.82,-0.19,-1.56,-1.86
-0.14,-0.46,0.82,-1.05,-1.28,-1.79
-0.14,-0.46,0.82,-1.8,-0.9,-1.67
-0.14,-0.47,0.81,-2.44,-0.45,-1.51
-0.14,-0.47,0.81,-2.44,-0.45,-1.51
-0.14,-0.47,0.81,-2.88,0.02,-1.28
-0.15,-0.46,0.81,-3.09,0.45,-1.05
-0.15,-0.45,0.81,-3.24,0.81,-0.79
-0.15,-0.45,0.81,-3.36,1.1,-0.56
-0.15,-0.44,0.8,-3.51,1.45,-0.43
-0.15,-0.44,0.8,-3.51,1.45,-0.43
-0.15,-0.42,0.8,-3.73,1.85,-0.32
-0.16,-0.4,0.81,-4.14,2.24,-0.2
-0.17,-0.38,0.81,-4.83,2.51,-0.06
-0.18,-0.36,0.81,-5.78,2.64,0.19
-0.19,-0.34,0.81,-6.92,2.64,0.5
-0.19,-0.34,0.81,-6.92,2.64,0.5
-0.2,-0.31,0.82,-8.21,2.58,0.81
-0.21,-0.28,0.82,-9.66,2.53,1.05
-0.21,-0.25,0.83,-11.25,2.49,1.32
-0.18,-0.22,0.84,-12.81,2.42,1.77
-0.18,-0.22,0.84,-14.23,2.42,2.66
-0.15,-0.2,0.85,-14.23,2.42,2.66
-0.12,-0.17,0.86,-15.42,2.4,4.16
-0.08,-0.15,0.86,-16.2,2.52,6.33
-0.04,-0.13,0.87,-16.22,2.77,9.25
-0.0,-0.1,0.88,-15.45,3.11,12.9
-0.0,-0.1,0.88,-13.71,3.7,17.13
0.03,-0.09,0.89,-13.71,3.7,17.13
0.06,-0.07,0.92,-10.85,4.32,21.83
0.08,-0.04,0.96,-7.06,5.16,26.87
0.08,-0.01,1.0,-2.68,6.26,32.28
0.08,0.0,1.04,1.83,7.57,37.71
0.08,0.0,1.04,1.83,7.57,37.71
0.06,0.01,1.07,6.37,9.1,43.14
0.04,0.02,1.11,10.71,10.59,48.51
0.02,0.01,1.16,14.3,11.73,53.63
0.0,-0.02,1.18,16.79,12.36,58.63
-0.01,-0.06,1.2,18.26,12.2,63.5
-0.01,-0.06,1.2,18.26,12.2,63.5
0.0,-0.12,1.21,18.92,11.25,68.04
0.02,-0.21,1.23,19.08,9.51,72.4
0.04,-0.31,1.25,18.92,7.18,76.57
0.07,-0.41,1.26,18.68,4.61,80.45
0.09,-0.52,1.26,18.73,1.93,83.97
0.09,-0.52,1.26,18.73,1.93,83.97
0.1,-0.62,1.24,19.63,-0.86,86.96
0.11,-0.72,1.23,21.65,-3.65,89.22
0.1,-0.81,1.22,24.78,-6.42,90.7
0.09,-0.86,1.19,28.93,-9.2,91.33
0.05,-0.86,1.18,33.95,-12.1,90.53
0.05,-0.86,1.18,33.95,-12.1,90.53
0.0,-0.83,1.2,39.49,-15.29,87.83
-0.04,-0.77,1.24,44.28,-19.07,83.3
-0.08,-0.7,1.27,46.78,-23.79,77.18
-0.09,-0.68,1.29,45.9,-29.52,69.65
-0.1,-0.7,1.28,41.19,-36.08,61.11
-0.1,-0.7,1.28,41.19,-36.08,61.11
-0.09,-0.77,1.23,32.76,-43.18,52.23
-0.08,-0.89,1.16,21.59,-50.5,43.4
-0.08,-1.01,1.08,9.17,-57.52,34.67
-0.08,-1.14,0.99,-3.02,-63.86,25.69
-0.09,-1.26,0.89,-13.84,-69.34,16.29
-0.09,-1.26,0.89,-13.84,-69.34,16.29
-0.11,-1.37,0.81,-22.26,-73.95,6.61
-0.13,-1.46,0.73,-27.68,-77.6,-2.94
-0.17,-1.52,0.68,-29.91,-80.36,-11.98
-0.23,-1.56,0.65,-29.19,-82.27,-20.33
-0.29,-1.56,0.64,-26.1,-83.28,-28.03
-0.29,-1.56,0.64,-26.1,-83.28,-28.03
-0.35,-1.55,0.63,-21.53,-83.38,-35.53
-0.38,-1.52,0.63,-16.37,-82.6,-43.2
-0.41,-1.46,0.61,-11.24,-80.68,-51.1
-0.44,-1.4,0.64,-6.53,-76.89,-59.79
-0.45,-1.33,0.65,-3.16,-71.31,-69.19
-0.45,-1.33,0.65,-3.16,-71.31,-69.19
-0.46,-1.27,0.65,-1.9,-64.2,-78.94
-0.49,-1.22,0.62,-2.94,-55.85,-88.79
-0.51,-1.2,0.58,-6.04,-46.81,-98.38
-0.56,-1.18,0.52,-10.85,-37.63,-107.45
-0.6,-1.17,0.46,-16.5,-28.45,-116.17
-0.6,-1.17,0.46,-16.5,-28.45,-116.17
-0.61,-1.16,0.4,-22.18,-19.61,-124.76
-0.6,-1.12,0.36,-27.4,-11.27,-132.96
-0.57,-1.05,0.33,-32.02,-3.16,-140.67
-0.56,-0.97,0.3,-36.05,5.06,-147.82
-0.55,-0.89,0.28,-39.65,13.59,-154.45
-0.55,-0.89,0.28,-39.65,13.59,-154.45
-0.53,-0.8,0.25,-43.09,22.79,-160.43
-0.54,-0.71,0.22,-46.64,32.81,-165.36
-0.54,-0.63,0.18,-50.28,43.06,-169.54
-0.55,-0.55,0.16,-54.2,53.04,-172.95
-0.56,-0.48,0.15,-58.33,62.23,-175.2
-0.56,-0.48,0.15,-58.33,62.23,-175.2
-0.59,-0.38,0.16,-62.57,70.58,-175.76
-0.63,-0.29,0.17,-66.95,77.83,-174.59
-0.66,-0.22,0.17,-71.59,83.48,-171.84
-0.68,-0.18,0.15,-76.53,87.25,-167.61
-0.71,-0.17,0.14,-81.39,88.88,-162.01
-0.71,-0.17,0.14,-81.39,88.88,-162.01
-0.72,-0.15,0.16,-85.55,88.7,-155.2
-0.7,-0.13,0.19,-88.46,87.39,-147.27
-0.67,-0.09,0.22,-89.79,85.52,-138.35
-0.63,-0.04,0.26,-89.51,83.65,-128.7
-0.6,0.01,0.31,-87.83,82.15,-118.52
-0.6,0.01,0.31,-87.83,82.15,-118.52
-0.55,0.07,0.34,-84.91,81.02,-107.83
-0.49,0.12,0.39,-80.99,79.95,-96.4
-0.43,0.17,0.48,-76.29,78.56,-84.03
-0.39,0.22,0.6,-71.26,77.09,-70.89
-0.36,0.26,0.71,-66.21,76.24,-57.56
-0.36,0.26,0.71,-66.21,76.24,-57.56
-0.32,0.3,0.79,-60.97,76.22,-44.68
-0.28,0.35,0.91,-55.15,76.9,-32.52
-0.25,0.43,1.06,-48.71,78.29,-20.95
-0.23,0.52,1.24,-42.31,80.35,-9.67
-0.22,0.6,1.38,-37.16,83.04,1.46
-0.22,0.6,1.38,-37.16,83.04,1.46
-0.22,0.65,1.49,-34.08,86.03,12.59
-0.23,0.65,1.59,-33.06,88.8,23.95
-0.25,0.58,1.68,-33.47,90.85,35.84
-0.28,0.49,1.72,-34.15,91.63,48.64
-0.3,0.4,1.76,-33.69,90.78,62.25
-0.3,0.4,1.76,-33.69,90.78,62.25
-0.29,0.32,1.79,-31.21,88.32,75.93
-0.25,0.25,1.82,-26.59,84.49,89.19
-0.21,0.19,1.85,-20.12,79.59,101.82
-0.2,0.13,1.85,-12.13,73.84,113.76
-0.21,0.08,1.86,-3.04,67.55,124.87
-0.21,0.08,1.86,-3.04,67.55,124.87
-0.21,0.04,1.85,6.69,60.72,134.98
-0.2,-0.0,1.85,16.35,53.37,144.09
-0.21,-0.06,1.84,25.23,45.58,152.01
-0.22,-0.11,1.81,33.05,37.01,158.39
-0.22,-0.16,1.77,39.68,27.32,163.27
-0.22,-0.16,1.77,39.68,27.32,163.27
-0.22,-0.2,1.75,44.6,16.55,166.59
-0.23,-0.26,1.71,47.4,4.54,168.23
-0.22,-0.32,1.67,47.74,-8.75,167.93
-0.2,-0.38,1.6,45.61,-23.2,165.83
-0.19,-0.45,1.52,41.28,-38.38,162.27
-0.19,-0.45,1.52,41.28,-38.38,162.27
-0.16,-0.55,1.44,35.1,-53.86,157.54
-0.13,-0.69,1.33,27.39,-69.19,151.84
-0.1,-0.88,1.21,19.23,-83.86,145.18
-0.01,-1.11,1.06,12.0,-97.4,137.53
0.08,-1.34,0.92,7.14,-109.31,129.49
0.08,-1.34,0.92,7.14,-109.31,129.49
0.08,-1.45,0.84,5.69,-119.1,121.84
0.11,-1.65,0.77,7.73,-126.73,113.32
0.07,-1.65,0.75,13.14,-131.45,105.73
-0.01,-1.67,0.75,19.43,-134.65,98.17
-0.07,-1.66,0.71,26.9,-135.87,88.98
-0.07,-1.66,0.71,26.9,-135.87,88.98
-0.12,-1.67,0.74,33.95,-135.97,78.11
-0.14,-1.72,0.68,40.17,-135.04,66.41
-0.18,-1.74,0.66,46.19,-132.97,55.28
-0.25,-1.71,0.69,51.99,-130.05,43.9
-0.32,-1.63,0.71,56.29,-126.15,31.45
-0.32,-1.63,0.71,56.29,-126.15,31.45
-0.42,-1.53,0.68,57.99,-121.81,17.84
-0.46,-1.47,0.63,57.11,-117.06,2.66
-0.45,-1.46,0.57,53.49,-112.5,-13.25
-0.43,-1.47,0.5,48.05,-107.87,-28.32
-0.43,-1.45,0.45,41.9,-102.75,-41.97
-0.43,-1.45,0.45,41.9,-102.75,-41.97
-0.46,-1.42,0.38,35.32,-97.19,-54.6
-0.45,-1.41,0.31,28.83,-91.17,-66.83
-0.43,-1.37,0.26,22.88,-83.84,-78.46
-0.45,-1.29,0.22,17.07,-75.81,-88.64
-0.41,-1.22,0.21,11.59,-67.39,-98.88
-0.41,-1.22,0.21,11.59,-67.39,-98.88
-0.4,-1.1,0.2,6.08,-57.76,-108.5
-0.42,-0.96,0.19,-0.71,-47.79,-117.46
-0.41,-0.88,0.17,-9.14,-38.11,-126.76
-0.38,-0.85,0.14,-19.08,-28.62,-136.22
-0.28,-0.83,0.12,-29.81,-19.14,-144.52
-0.28,-0.83,0.12,-29.81,-19.14,-144.52
-0.26,-0.7,0.09,-41.18,-9.0,-148.88
-0.4,-0.6,0.09,-53.34,0.6,-149.48
-0.46,-0.56,0.09,-63.96,9.36,-151.3
-0.36,-0.56,0.09,-72.15,18.36,-155.52
-0.36,-0.42,0.09,-79.59,26.84,-156.66
-0.36,-0.42,0.09,-79.59,26.84,-156.66
-0.45,-0.29,0.12,-87.62,33.0,-153.9
-0.48,-0.25,0.15,-95.39,36.83,-149.88
-0.52,-0.23,0.19,-101.42,39.43,-145.74
-0.37,-0.4,0.23,-105.61,40.82,-143.53
-0.36,-0.29,0.23,-107.9,43.06,-137.06
-0.36,-0.29,0.23,-107.9,43.06,-137.06
-0.46,-0.16,0.3,-109.93,45.05,-126.06
-0.44,-0.15,0.37,-111.39,47.24,-115.06
-0.47,-0.19,0.37,-111.39,50.71,-102.77
-0.44,-0.21,0.4,-108.49,54.86,-91.11
-0.43,-0.13,0.47,-102.77,59.61,-79.58
-0.43,-0.13,0.47,-102.77,59.61,-79.58
-0.45,-0.0,0.55,-96.42,64.31,-67.88
-0.44,0.09,0.63,-90.55,68.11,-56.36
-0.4,0.14,0.71,-84.61,70.96,-45.11
-0.37,0.21,0.8,-78.46,73.04,-33.27
-0.37,0.28,0.88,-72.76,74.11,-20.33
-0.37,0.28,0.88,-72.76,74.11,-20.33
-0.4,0.33,0.94,-67.88,74.12,-6.55
-0.43,0.34,0.97,-63.51,73.16,6.98
-0.42,0.34,0.98,-58.75,71.62,19.78
-0.39,0.36,1.04,-52.56,69.59,32.17
-0.33,0.36,1.12,-44.85,67.56,44.09
-0.33,0.36,1.12,-44.85,67.56,44.09
-0.28,0.39,1.23,-36.3,65.98,55.67
-0.25,0.42,1.32,-27.94,65.03,67.11
-0.21,0.43,1.4,-20.35,64.63,78.44
-0.18,0.41,1.49,-14.0,64.62,89.96
-0.18,0.34,1.55,-9.08,64.67,101.72
-0.18,0.34,1.55,-9.08,64.67,101.72
-0.19,0.24,1.57,-5.14,64.39,113.48
-0.19,0.12,1.59,-1.19,63.28,125.02
-0.17,-0.0,1.6,3.66,61.12,136.11
-0.13,-0.12,1.63,9.67,57.99,146.47
-0.11,-0.19,1.68,16.81,53.92,156.0
-0.11,-0.19,1.68,16.81,53.92,156.0
-0.12,-0.21,1.74,24.37,48.8,164.18
-0.14,-0.22,1.84,30.53,42.38,170.24
-0.15,-0.35,1.82,33.64,34.46,174.07
-0.14,-0.52,1.67,34.95,25.14,176.58
-0.14,-0.64,1.62,37.0,14.8,177.62
-0.14,-0.64,1.62,37.0,14.8,177.62
-0.12,-0.69,1.67,39.75,3.8,175.92
-0.07,-0.72,1.69,40.78,-7.69,171.41
-0.01,-0.78,1.62,38.65,-19.62,165.23
0.0,-0.86,1.58,33.69,-31.34,158.13
0.04,-1.01,1.44,26.13,-42.88,149.96
0.04,-1.01,1.44,26.13,-42.88,149.96
0.07,-1.19,1.26,18.15,-53.52,141.21
0.1,-1.41,1.15,11.62,-63.24,131.88
0.11,-1.64,1.0,8.23,-71.48,122.4
0.07,-1.76,0.92,8.98,-78.14,113.39
0.02,-1.82,0.87,13.31,-83.59,104.22
0.02,-1.82,0.87,13.31,-83.59,104.22
-0.05,-1.83,0.82,21.0,-87.57,95.33
-0.12,-1.77,0.86,30.63,-90.8,85.93
-0.17,-1.72,0.85,40.31,-93.71,74.99
-0.2,-1.68,0.83,48.98,-96.22,63.31
-0.26,-1.64,0.83,55.8,-98.73,51.82
-0.26,-1.64,0.83,55.8,-98.73,51.82
-0.31,-1.59,0.81,60.05,-101.31,39.83
-0.35,-1.55,0.77,61.46,-103.87,26.7
-0.37,-1.55,0.73,59.98,-106.0,13.16
-0.39,-1.55,0.68,55.83,-107.2,-0.38
-0.38,-1.6,0.61,49.53,-107.29,-14.61
-0.38,-1.6,0.61,49.53,-107.29,-14.61
-0.37,-1.61,0.52,42.26,-105.6,-29.02
-0.37,-1.66,0.46,34.4,-102.23,-43.12
-0.38,-1.66,0.38,26.97,-97.09,-57.03
-0.38,-1.69,0.27,20.88,-90.4,-70.22
-0.43,-1.63,0.2,17.51,-82.5,-82.02
-0.43,-1.63,0.2,17.51,-82.5,-82.02
-0.48,-1.49,0.19,16.43,-73.87,-93.17
-0.5,-1.33,0.19,16.12,-65.01,-103.91
-0.53,-1.13,0.18,15.06,-56.07,-114.28
-0.58,-0.96,0.2,11.77,-47.56,-125.3
-0.44,-0.98,0.21,5.82,-39.68,-138.19
-0.44,-0.98,0.21,5.82,-39.68,-138.19
-0.41,-0.76,0.12,-2.51,-30.5,-147.22
-0.5,-0.62,0.11,-14.1,-21.88,-152.35
-0.46,-0.71,0.1,-26.68,-14.38,-158.03
-0.39,-0.78,0.01,-37.62,-5.73,-162.67
-0.4,-0.7,-0.02,-46.38,3.09,-164.83
-0.4,-0.7,-0.02,-46.38,3.09,-164.83
-0.45,-0.61,0.02,-53.31,11.22,-165.4
-0.5,-0.51,0.04,-58.35,18.74,-164.81
-0.54,-0.36,0.06,-61.89,25.75,-163.33
-0.53,-0.3,0.09,-65.08,31.95,-161.78
-0.5,-0.25,0.1,-67.97,37.18,-157.84
-0.5,-0.25,0.1,-67.97,37.18,-157.84
-0.57,-0.12,0.13,-70.24,41.74,-150.56
-0.51,-0.16,0.21,-71.21,45.57,-144.53
-0.41,-0.1,0.25,-69.74,50.35,-136.76
-0.44,0.07,0.28,-67.71,55.39,-124.49
-0.49,0.19,0.36,-66.42,58.78,-111.12
-0.49,0.19,0.36,-66.42,58.78,-111.12
-0.46,0.23,0.42,-65.3,61.79,-98.06
-0.41,0.25,0.43,-63.77,64.94,-84.44
-0.38,0.3,0.46,-61.51,67.27,-70.89
-0.33,0.35,0.55,-58.06,68.83,-58.19
-0.28,0.39,0.66,-53.04,69.95,-46.08
-0.28,0.39,0.66,-53.04,69.95,-46.08
-0.2,0.42,0.77,-46.92,71.29,-34.51
-0.12,0.45,0.95,-40.67,72.84,-22.9
-0.1,0.47,1.09,-35.61,75.25,-10.55
-0.13,0.5,1.19,-31.79,78.94,1.83
-0.2,0.52,1.27,-28.74,83.76,13.36
-0.2,0.52,1.27,-28.74,83.76,13.36
-0.24,0.5,1.36,-26.08,88.54,23.79
-0.27,0.5,1.44,-23.14,92.52,33.64
-0.29,0.5,1.56,-19.47,95.18,43.4
-0.28,0.52,1.69,-15.37,95.94,53.38
-0.3,0.51,1.86,-11.76,94.46,64.04
-0.3,0.51,1.86,-11.76,94.46,64.04
-0.3,0.47,1.93,-9.6,90.86,75.41
-0.34,0.37,1.96,-8.83,85.07,87.44
-0.41,0.25,1.96,-8.85,77.03,99.58
-0.44,0.12,1.96,-9.07,66.91,110.49
-0.46,0.03,1.96,-9.38,54.92,119.36
-0.46,0.03,1.96,-9.38,54.92,119.36
-0.44,-0.08,1.96,-10.1,41.46,125.58
-0.35,-0.19,1.96,-11.54,27.04,129.44
-0.21,-0.33,1.95,-13.91,12.06,131.9
-0.09,-0.52,1.81,-16.28,-2.47,133.73
-0.01,-0.73,1.62,-16.66,-15.67,135.18
-0.01,-0.73,1.62,-16.66,-15.67,135.18
0.02,-0.92,1.48,-13.23,-27.51,135.92
0.02,-1.06,1.41,-6.03,-38.16,135.8
0.03,-1.14,1.34,3.64,-47.91,134.63
0.04,-1.19,1.25,14.71,-56.93,132.44
0.04,-1.23,1.19,26.65,-65.2,129.41
0.04,-1.23,1.19,26.65,-65.2,129.41
0.02,-1.25,1.14,39.0,-72.84,125.81
-0.04,-1.25,1.1,50.98,-79.86,122.01
-0.13,-1.26,1.07,61.92,-86.12,117.75
-0.24,-1.28,1.05,71.19,-91.93,112.52
-0.37,-1.27,1.0,78.4,-97.46,106.05
-0.37,-1.27,1.0,78.4,-97.46,106.05
-0.42,-1.34,0.96,83.58,-103.08,96.95
-0.38,-1.34,0.94,87.08,-108.04,86.2
-0.37,-1.28,0.93,87.21,-112.79,75.95
-0.35,-1.29,0.88,83.9,-117.47,64.34
-0.3,-1.4,0.8,78.4,-121.06,50.97
-0.3,-1.4,0.8,78.4,-121.06,50.97
-0.31,-1.5,0.69,71.85,-122.97,37.68
-0.34,-1.57,0.59,65.07,-123.42,24.79
-0.34,-1.6,0.5,58.83,-122.33,12.04
-0.35,-1.61,0.4,53.62,-119.49,-0.14
-0.34,-1.59,0.36,50.14,-114.63,-11.81
-0.34,-1.59,0.36,50.14,-114.63,-11.81
-0.33,-1.53,0.35,47.57,-108.23,-23.25
-0.33,-1.43,0.35,45.0,-100.45,-34.72
-0.32,-1.37,0.32,41.58,-91.34,-46.38
-0.33,-1.33,0.28,37.13,-81.15,-57.59
-0.33,-1.33,0.28,32.02,-70.19,-68.62
-0.33,-1.3,0.25,32.02,-70.19,-68.62
-0.34,-1.26,0.22,26.74,-58.67,-79.25
-0.36,-1.17,0.2,21.39,-47.11,-89.37
-0.38,-1.07,0.19,15.36,-36.1,-99.25
-0.39,-0.97,0.16,8.36,-26.07,-108.6
-0.39,-0.97,0.16,8.36,-26.07,-108.6
-0.39,-0.89,0.15,0.37,-17.12,-117.16
-0.37,-0.81,0.14,-8.28,-8.98,-124.82
-0.37,-0.71,0.15,-17.4,-1.05,-131.55
-0.37,-0.63,0.17,-27.46,6.7,-138.02
-0.37,-0.56,0.15,-38.52,13.99,-144.13
-0.37,-0.56,0.15,-38.52,13.99,-144.13
-0.38,-0.51,0.13,-50.3,20.32,-148.67
-0.44,-0.43,0.11,-62.35,25.33,-150.95
-0.43,-0.41,0.11,-74.15,29.03,-152.07
-0.44,-0.34,0.11,-84.99,32.08,-151.26
-0.47,-0.28,0.13,-94.74,34.51,-149.48
-0.47,-0.28,0.13,-94.74,34.51,-149.48
-0.44,-0.32,0.17,-102.72,36.85,-148.25
-0.38,-0.32,0.18,-108.34,39.94,-146.33
-0.35,-0.21,0.21,-111.81,43.58,-141.63
-0.34,-0.11,0.31,-113.99,47.01,-133.33
-0.42,-0.06,0.35,-115.85,50.24,-121.57
-0.42,-0.06,0.35,-115.85,50.24,-121.57
-0.43,-0.15,0.38,-116.22,53.15,-109.81
-0.35,-0.18,0.4,-113.04,57.52,-98.48
-0.37,-0.05,0.45,-107.43,63.14,-84.16
-0.41,0.03,0.55,-100.94,67.92,-69.03
-0.33,0.06,0.63,-93.03,73.16,-54.95
-0.33,0.06,0.63,-93.03,73.16,-54.95
-0.29,0.14,0.69,-83.65,79.68,-39.8
-0.3,0.23,0.8,-73.43,85.77,-24.37
-0.32,0.28,0.91,-62.16,91.88,-10.13
-0.33,0.29,1.02,-49.76,98.2,2.84
-0.36,0.33,1.12,-37.39,103.64,15.45
-0.36,0.33,1.12,-37.39,103.64,15.45
-0.39,0.39,1.22,-26.23,107.3,27.93
-0.39,0.44,1.32,-16.48,109.11,39.97
-0.38,0.46,1.42,-8.05,109.21,51.35
-0.37,0.5,1.51,-1.24,107.56,62.44
-0.34,0.5,1.58,3.36,103.96,73.03
-0.34,0.5,1.58,3.36,103.96,73.03
-0.29,0.4,1.6,6.24,98.78,83.1
-0.26,0.31,1.61,8.82,92.61,93.07
-0.23,0.23,1.65,11.68,85.68,102.86
-0.19,0.13,1.67,14.56,78.3,112.26
-0.16,0.02,1.66,17.67,70.65,121.12
-0.16,0.02,1.66,17.67,70.65,121.12
-0.13,-0.11,1.65,21.59,63.1,129.11
-0.11,-0.2,1.65,26.91,55.88,136.14
-0.13,-0.22,1.66,33.19,48.81,142.19
-0.15,-0.21,1.66,39.4,41.32,146.72
-0.16,-0.22,1.66,44.77,33.11,149.43
-0.16,-0.22,1.66,44.77,33.11,149.43
-0.17,-0.23,1.68,48.41,23.85,150.72
-0.18,-0.27,1.67,49.29,13.46,150.87
-0.17,-0.34,1.63,47.3,2.05,150.1
-0.15,-0.52,1.56,42.91,-10.07,148.43
-0.12,-0.72,1.4,38.04,-22.56,146.42
-0.12,-0.72,1.4,38.04,-22.56,146.42
-0.11,-0.89,1.31,34.98,-35.04,144.12
-0.1,-1.03,1.24,34.6,-47.31,140.38
-0.05,-1.16,1.16,36.88,-58.89,135.03
-0.03,-1.18,1.14,41.57,-69.42,129.23
-0.02,-1.15,1.17,47.15,-78.47,122.44
-0.02,-1.15,1.17,47.15,-78.47,122.44
-0.02,-1.12,1.15,52.09,-85.52,114.98
-0.08,-1.05,1.17,55.16,-90.66,107.03
-0.12,-1.06,1.15,55.23,-94.48,97.5
-0.16,-1.11,1.11,52.18,-97.25,86.84
-0.22,-1.18,1.05,46.43,-99.6,75.92
-0.22,-1.18,1.05,46.43,-99.6,75.92
-0.29,-1.28,0.92,39.44,-101.49,64.43
-0.34,-1.4,0.82,33.12,-103.11,51.99
-0.34,-1.5,0.74,28.71,-104.68,39.08
-0.33,-1.55,0.68,26.81,-106.06,26.68
-0.32,-1.54,0.67,27.23,-107.23,15.01
