ax,ay,az,gx,gy,gz
0.06,0.04,0.94,1.81,-5.33,-8.26
0.06,0.04,0.94,1.81,-5.33,-8.26
0.05,0.06,0.95,2.25,-4.88,-7.95
0.05,0.07,0.96,2.06,-4.87,-7.8
0.06,0.07,0.96,1.28,-5.18,-7.78
0.06,0.06,0.97,0.08,-5.65,-7.77
0.05,0.05,0.96,-1.38,-6.21,-7.84
0.05,0.05,0.96,-1.38,-6.21,-7.84
0.06,0.03,0.96,-2.83,-6.8,-8.01
0.07,0.02,0.96,-4.12,-7.35,-8.11
0.08,0.02,0.96,-5.26,-7.87,-8.05
0.1,0.0,0.96,-6.2,-8.24,-7.94
0.11,-0.01,0.94,-6.77,-8.33,-7.68
0.11,-0.01,0.94,-6.77,-8.33,-7.68
0.12,-0.02,0.94,-6.84,-8.11,-7.17
0.12,-0.03,0.93,-6.4,-7.64,-6.48
0.12,-0.04,0.93,-5.33,-6.91,-5.66
0.12,-0.04,0.93,-3.68,-6.03,-4.79
0.12,-0.03,0.94,-1.55,-4.98,-3.96
0.12,-0.03,0.94,-1.55,-4.98,-3.96
0.1,-0.02,0.95,0.85,-3.83,-3.21
0.1,-0.0,0.97,3.27,-2.71,-2.6
0.09,0.01,0.99,5.38,-1.71,-2.12
0.08,0.02,1.01,6.89,-0.9,-1.83
0.07,0.02,1.03,7.71,-0.34,-1.81
0.07,0.02,1.03,7.71,-0.34,-1.81
0.06,0.01,1.02,7.96,0.07,-2.06
0.05,-0.01,1.03,7.79,0.23,-2.65
0.05,-0.04,1.03,7.31,0.09,-3.54
0.05,-0.05,1.04,6.59,-0.28,-4.61
0.05,-0.06,1.03,5.81,-0.76,-5.86
0.05,-0.06,1.03,5.81,-0.76,-5.86
0.06,-0.06,1.03,5.13,-1.28,-7.3
0.05,-0.05,1.04,4.7,-1.68,-8.92
0.05,-0.03,1.05,4.51,-1.77,-10.68
0.04,0.0,1.05,4.39,-1.47,-12.6
0.03,0.04,1.05,4.13,-0.91,-14.52
0.03,0.04,1.05,4.13,-0.91,-14.52
0.02,0.08,1.05,3.52,-0.42,-16.26
0.02,0.09,1.05,2.38,-0.28,-17.59
0.02,0.1,1.03,0.69,-0.65,-18.34
-0.02,0.07,1.01,-1.36,-1.66,-18.32
-0.09,0.03,0.94,-3.62,-3.5,-17.56
-0.09,0.03,0.94,-3.62,-3.5,-17.56
-0.13,-0.0,0.87,-5.66,-6.39,-16.25
-0.11,-0.01,0.86,-6.87,-10.16,-14.6
-0.04,0.01,0.89,-7.41,-14.09,-12.98
0.01,0.02,0.91,-7.94,-17.47,-11.55
0.03,0.03,0.9,-8.83,-19.92,-10.4
0.03,0.03,0.9,-8.83,-19.92,-10.4
0.05,0.01,0.89,-9.96,-21.36,-9.55
0.08,0.01,0.9,-11.19,-21.81,-9.0
0.1,0.02,0.92,-12.63,-21.4,-8.69
0.11,0.04,0.95,-14.42,-20.04,-8.51
0.1,0.05,0.97,-16.75,-17.79,-8.5
0.1,0.05,0.97,-16.75,-17.79,-8.5
0.1,0.03,0.98,-19.75,-14.73,-8.79
0.11,-0.01,0.97,-23.23,-11.2,-9.21
0.11,-0.06,0.97,-26.63,-7.46,-9.45
0.1,-0.12,0.96,-29.27,-3.79,-9.45
0.06,-0.16,0.96,-30.66,-0.41,-9.37
0.06,-0.16,0.96,-30.66,-0.41,-9.37
0.03,-0.18,0.96,-30.52,2.33,-9.43
0.0,-0.18,0.97,-28.84,4.28,-9.71
-0.0,-0.15,0.99,-25.92,5.25,-10.23
0.01,-0.11,1.01,-22.29,5.37,-10.85
0.0,-0.06,1.05,-18.59,4.75,-11.49
0.0,-0.06,1.05,-18.59,4.75,-11.49
-0.01,-0.01,1.07,-15.4,3.64,-12.26
-0.03,0.03,1.08,-12.99,2.32,-13.29
-0.03,0.07,1.09,-11.57,0.92,-14.74
-0.03,0.1,1.09,-11.25,-0.36,-16.51
-0.01,0.12,1.08,-11.94,-1.28,-18.37
-0.01,0.12,1.08,-11.94,-1.28,-18.37
-0.01,0.12,1.07,-13.28,-1.76,-20.08
-0.02,0.12,1.04,-14.89,-1.83,-21.62
-0.03,0.11,1.01,-16.3,-1.48,-23.01
-0.03,0.11,0.97,-17.15,-0.8,-24.26
-0.02,0.12,0.94,-17.16,-0.12,-25.2
-0.02,0.12,0.94,-17.16,-0.12,-25.2
-0.0,0.13,0.91,-15.99,0.42,-25.56
0.01,0.15,0.88,-13.57,0.76,-25.22
0.02,0.19,0.86,-9.93,0.7,-24.08
0.04,0.24,0.82,-5.16,0.2,-22.3
0.07,0.28,0.8,0.73,-0.66,-20.16
0.07,0.28,0.8,0.73,-0.66,-20.16
0.11,0.33,0.79,7.46,-1.58,-17.68
0.15,0.38,0.78,14.54,-2.28,-14.86
0.19,0.45,0.75,21.62,-2.55,-11.72
0.24,0.5,0.73,28.77,-2.17,-8.52
0.24,0.5,0.73,35.78,-0.9,-5.24
0.32,0.54,0.72,35.78,-0.9,-5.24
0.4,0.59,0.73,42.2,1.28,-1.18
0.47,0.64,0.74,47.55,4.34,3.78
0.54,0.67,0.75,51.97,8.45,9.41
0.58,0.69,0.77,55.67,13.91,15.9
0.58,0.69,0.77,58.66,20.51,23.01
0.58,0.7,0.8,58.66,20.51,23.01
0.57,0.68,0.82,61.26,27.76,30.27
0.52,0.65,0.85,63.54,35.22,37.87
0.45,0.62,0.89,65.52,42.2,45.96
0.37,0.58,0.93,67.19,48.31,53.97
0.37,0.58,0.93,67.19,48.31,53.97
0.3,0.54,0.99,68.57,53.22,61.31
0.25,0.52,1.07,69.69,56.81,67.84
0.2,0.51,1.17,70.31,59.04,73.7
0.16,0.48,1.27,69.63,59.72,78.73
0.13,0.44,1.37,67.13,58.87,82.67
0.13,0.44,1.37,67.13,58.87,82.67
0.09,0.38,1.44,62.64,56.73,85.3
0.04,0.3,1.49,56.81,53.38,86.72
0.01,0.2,1.54,50.21,48.91,86.97
-0.0,0.11,1.57,43.0,43.18,86.32
0.0,0.01,1.58,35.38,36.28,85.17
0.0,0.01,1.58,35.38,36.28,85.17
0.01,-0.1,1.58,27.5,28.12,83.63
-0.0,-0.22,1.56,19.65,18.85,81.89
-0.01,-0.34,1.54,12.21,8.72,79.93
-0.01,-0.46,1.51,5.51,-2.04,77.62
0.01,-0.58,1.49,-0.19,-12.83,74.86
0.01,-0.58,1.49,-0.19,-12.83,74.86
0.0,-0.7,1.45,-4.58,-23.01,71.42
-0.02,-0.81,1.4,-7.28,-32.25,67.14
-0.05,-0.89,1.35,-8.16,-40.5,61.9
-0.09,-0.94,1.31,-7.38,-47.87,55.48
-0.11,-0.98,1.26,-5.1,-54.44,47.8
-0.11,-0.98,1.26,-5.1,-54.44,47.8
-0.14,-0.99,1.22,-1.89,-60.34,39.26
-0.16,-0.97,1.18,1.66,-65.78,29.95
-0.17,-0.93,1.12,5.14,-70.73,20.03
-0.17,-0.88,1.07,8.16,-75.25,9.73
-0.17,-0.84,1.03,10.34,-79.27,-0.58
-0.17,-0.84,1.03,10.34,-79.27,-0.58
-0.19,-0.78,0.99,11.51,-82.74,-10.63
-0.23,-0.72,0.95,11.52,-85.58,-20.55
-0.28,-0.66,0.9,10.39,-87.69,-30.53
-0.31,-0.59,0.87,8.2,-88.81,-40.59
-0.35,-0.52,0.85,4.99,-88.83,-50.67
-0.35,-0.52,0.85,4.99,-88.83,-50.67
-0.37,-0.42,0.84,0.57,-87.64,-60.59
-0.4,-0.33,0.82,-5.19,-85.3,-70.18
-0.41,-0.25,0.81,-12.31,-81.93,-79.46
-0.4,-0.18,0.78,-20.74,-77.52,-88.05
-0.39,-0.12,0.76,-30.48,-72.25,-95.58
-0.39,-0.12,0.76,-30.48,-72.25,-95.58
-0.38,-0.1,0.75,-41.28,-66.43,-102.03
-0.37,-0.1,0.72,-52.59,-60.13,-107.59
-0.38,-0.12,0.69,-63.81,-53.44,-112.16
-0.4,-0.13,0.65,-74.11,-46.69,-115.6
-0.41,-0.12,0.62,-82.81,-39.98,-118.17
-0.41,-0.12,0.62,-82.81,-39.98,-118.17
-0.39,-0.09,0.6,-89.65,-33.46,-120.14
-0.37,-0.04,0.6,-94.61,-27.29,-121.42
-0.35,0.01,0.61,-97.71,-21.2,-122.15
-0.34,0.08,0.61,-99.16,-15.02,-122.21
-0.31,0.14,0.59,-99.32,-8.76,-121.62
-0.31,0.14,0.59,-99.32,-8.76,-121.62
-0.29,0.22,0.59,-98.3,-2.64,-120.12
-0.26,0.29,0.61,-96.15,3.38,-117.69
-0.22,0.38,0.62,-93.11,9.43,-114.28
-0.16,0.46,0.6,-89.46,15.26,-110.27
-0.09,0.57,0.61,-85.15,20.75,-105.46
-0.09,0.57,0.61,-85.15,20.75,-105.46
0.02,0.68,0.64,-80.06,25.91,-100.54
0.13,0.79,0.68,-74.01,31.13,-94.97
0.2,0.91,0.73,-66.78,36.33,-88.41
0.24,1.03,0.79,-58.66,41.65,-80.9
0.24,1.11,0.84,-50.45,47.09,-72.14
0.24,1.11,0.84,-50.45,47.09,-72.14
0.2,1.18,0.88,-42.85,52.46,-61.68
0.13,1.24,0.91,-36.11,57.19,-49.3
0.06,1.27,0.93,-30.09,60.63,-35.39
0.05,1.27,0.96,-24.73,62.47,-20.62
0.1,1.26,1.0,-19.77,62.31,-5.55
0.1,1.26,1.0,-19.77,62.31,-5.55
0.17,1.25,1.05,-14.9,60.6,9.73
0.25,1.24,1.11,-10.22,57.97,25.06
0.32,1.19,1.15,-6.06,54.85,40.36
0.39,1.12,1.19,-2.72,51.55,55.73
0.42,1.02,1.22,-0.23,48.35,71.24
0.42,1.02,1.22,-0.23,48.35,71.24
0.44,0.9,1.22,1.77,45.43,86.86
0.47,0.76,1.22,3.71,42.66,102.46
0.5,0.61,1.23,5.94,40.17,118.01
0.52,0.46,1.24,8.52,38.21,133.4
0.51,0.31,1.24,11.5,36.99,148.3
0.51,0.31,1.24,11.5,36.99,148.3
0.43,0.15,1.24,14.96,36.76,161.89
0.26,-0.03,1.26,19.16,37.33,172.69
0.09,-0.23,1.27,24.75,37.72,179.01
-0.01,-0.37,1.26,32.02,37.58,179.75
-0.02,-0.46,1.24,41.13,36.89,174.89
-0.02,-0.46,1.24,41.13,36.89,174.89
0.04,-0.5,1.21,52.53,35.71,166.12
0.05,-0.46,1.28,66.12,34.1,156.13
0.08,-0.46,1.4,80.76,31.64,145.96
-0.03,-0.33,1.55,94.25,28.97,137.26
-0.08,-0.32,1.62,103.54,24.32,128.08
-0.08,-0.32,1.62,103.54,24.32,128.08
-0.15,-0.29,1.71,108.54,18.87,118.31
-0.18,-0.34,1.69,106.88,11.52,107.53
-0.2,-0.41,1.58,100.65,2.41,97.32
-0.24,-0.46,1.53,92.06,-7.62,86.85
-0.23,-0.51,1.48,81.27,-18.57,74.48
-0.23,-0.51,1.48,81.27,-18.57,74.48
-0.18,-0.57,1.39,68.69,-29.28,60.31
-0.12,-0.63,1.31,55.13,-39.0,45.41
-0.08,-0.69,1.22,41.39,-47.21,30.4
-0.07,-0.71,1.13,28.05,-53.72,15.34
-0.06,-0.72,1.02,15.66,-58.47,0.38
-0.06,-0.72,1.02,15.66,-58.47,0.38
-0.05,-0.73,0.93,4.68,-61.88,-14.34
-0.04,-0.71,0.87,-4.97,-64.15,-28.28
-0.03,-0.72,0.79,-13.69,-65.5,-41.32
-0.03,-0.71,0.72,-21.03,-65.65,-53.39
-0.06,-0.68,0.68,-26.92,-64.18,-64.86
-0.06,-0.68,0.68,-26.92,-64.18,-64.86
-0.1,-0.65,0.66,-31.88,-61.21,-75.84
-0.17,-0.61,0.64,-35.39,-56.59,-85.89
-0.25,-0.54,0.62,-36.9,-50.31,-94.93
-0.35,-0.43,0.64,-36.57,-43.02,-103.35
-0.42,-0.29,0.7,-35.54,-35.43,-111.54
-0.42,-0.29,0.7,-35.54,-35.43,-111.54
-0.45,-0.15,0.78,-35.68,-28.35,-119.11
-0.46,-0.02,0.83,-38.71,-22.43,-124.87
-0.51,0.07,0.83,-45.22,-17.71,-128.07
-0.55,0.08,0.8,-54.67,-14.25,-129.56
-0.57,0.03,0.78,-65.33,-11.78,-130.2
-0.57,0.03,0.78,-65.33,-11.78,-130.2
-0.58,-0.01,0.76,-75.49,-9.4,-129.6
-0.61,-0.01,0.75,-84.23,-6.87,-127.58
-0.61,0.03,0.74,-91.64,-4.41,-125.08
-0.6,0.04,0.69,-98.5,-2.57,-122.06
-0.56,0.05,0.62,-103.52,-1.75,-118.5
-0.56,0.05,0.62,-103.52,-1.75,-118.5
-0.46,0.06,0.57,-105.08,-1.08,-115.39
-0.33,0.1,0.59,-102.72,-0.24,-112.54
-0.26,0.2,0.6,-97.31,0.79,-107.96
-0.21,0.32,0.6,-89.53,1.78,-101.4
-0.15,0.46,0.63,-80.03,2.74,-93.81
-0.15,0.46,0.63,-80.03,2.74,-93.81
-0.06,0.6,0.67,-70.04,3.4,-85.84
0.04,0.76,0.71,-60.81,4.16,-77.61
0.17,0.87,0.76,-52.49,5.89,-69.47
0.3,0.91,0.81,-44.34,9.41,-61.2
0.38,0.97,0.85,-36.32,15.29,-51.42
0.38,0.97,0.85,-36.32,15.29,-51.42
0.41,1.04,0.87,-29.32,23.53,-39.64
0.41,1.05,0.89,-23.34,33.51,-26.58
0.39,1.01,0.93,-17.11,44.08,-12.17
0.37,0.97,0.98,-10.09,54.19,4.08
0.35,0.94,1.02,-2.65,63.15,21.92
0.35,0.94,1.02,-2.65,63.15,21.92
0.33,0.9,1.08,5.1,70.52,40.83
0.32,0.84,1.13,13.06,76.19,60.32
0.31,0.76,1.19,21.14,80.14,80.2
0.33,0.68,1.22,28.93,82.63,100.45
0.33,0.59,1.25,36.09,83.94,120.94
0.33,0.59,1.25,36.09,83.94,120.94
0.34,0.43,1.25,43.06,83.98,140.57
0.34,0.22,1.21,50.94,83.39,158.78
0.24,0.0,1.17,60.85,82.75,175.86
0.06,-0.2,1.18,73.7,82.07,190.63
-0.09,-0.37,1.18,89.27,81.37,200.7
-0.09,-0.37,1.18,89.27,81.37,200.7
-0.18,-0.48,1.18,106.89,81.17,204.26
-0.29,-0.5,1.24,126.22,81.56,200.94
-0.42,-0.37,1.34,146.67,81.99,191.3
-0.54,-0.12,1.54,166.13,81.79,176.75
-0.63,0.2,1.82,180.53,78.8,158.99
-0.63,0.2,1.82,180.53,78.8,158.99
-0.75,0.55,1.94,185.48,71.39,139.52
-0.87,0.85,1.94,175.38,56.88,119.76
-0.94,0.96,1.94,147.96,35.1,99.98
-0.87,0.8,1.92,107.18,7.71,80.04
-0.76,0.48,1.75,57.53,-23.29,61.06
-0.76,0.48,1.75,57.53,-23.29,61.06
-0.73,0.23,1.53,3.83,-56.82,43.17
-0.66,0.03,1.25,-49.48,-91.01,24.92
-0.5,-0.19,0.99,-99.11,-123.61,5.44
-0.28,-0.4,0.77,-143.46,-153.06,-14.99
-0.01,-0.62,0.58,-182.16,-177.92,-35.81
-0.01,-0.62,0.58,-182.16,-177.92,-35.81
0.24,-0.85,0.41,-214.43,-196.8,-55.64
0.47,-1.07,0.29,-238.58,-208.12,-73.78
0.66,-1.29,0.07,-253.07,-210.53,-89.09
0.78,-1.5,-0.13,-254.46,-202.89,-101.06
0.78,-1.69,-0.27,-243.21,-185.06,-108.88
0.78,-1.69,-0.27,-243.21,-185.06,-108.88
0.65,-1.73,-0.27,-215.55,-160.4,-112.49
0.46,-1.52,-0.18,-175.01,-131.4,-111.43
0.29,-1.15,-0.03,-126.02,-99.59,-107.1
0.15,-0.79,0.11,-73.71,-67.19,-101.07
0.03,-0.44,0.26,-22.06,-36.21,-94.17
0.03,-0.44,0.26,-22.06,-36.21,-94.17
-0.13,-0.04,0.39,25.76,-7.63,-86.86
-0.27,0.32,0.67,66.32,17.21,-82.26
-0.34,0.62,0.95,95.61,37.23,-79.2
-0.47,1.09,1.02,112.06,50.88,-71.82
-0.59,1.32,0.88,115.29,58.85,-64.04
-0.59,1.32,0.88,115.29,58.85,-64.04
-0.61,1.29,0.95,110.7,62.16,-59.47
-0.53,1.23,1.02,100.83,60.74,-55.5
-0.42,1.26,1.0,85.81,55.17,-50.02
-0.31,1.3,0.99,67.25,46.86,-43.31
-0.16,1.3,0.97,46.17,38.08,-36.27
-0.16,1.3,0.97,46.17,38.08,-36.27
0.01,1.21,0.91,23.14,30.87,-29.36
0.16,1.07,0.87,-0.56,26.29,-21.91
0.23,0.91,0.86,-23.32,25.2,-13.08
0.23,0.74,0.87,-43.4,27.74,-3.2
0.18,0.52,0.9,-58.28,32.64,7.01
0.18,0.52,0.9,-58.28,32.64,7.01
0.1,0.33,0.9,-65.2,38.41,17.33
0.01,0.23,0.86,-64.06,45.0,27.49
-0.09,0.18,0.91,-56.66,51.47,36.63
-0.14,0.12,1.03,-45.22,56.39,43.67
-0.14,0.05,1.15,-31.8,59.35,48.52
-0.14,0.05,1.15,-31.8,59.35,48.52
-0.24,0.01,1.28,-18.03,60.11,52.08
-0.42,0.03,1.42,-5.31,57.87,54.43
-0.56,0.03,1.53,4.55,51.57,54.11
-0.6,-0.01,1.62,10.47,41.01,50.02
-0.56,-0.08,1.68,12.11,27.04,42.63
-0.56,-0.08,1.68,12.11,27.04,42.63
-0.47,-0.14,1.7,8.82,10.43,32.75
-0.33,-0.2,1.68,0.4,-7.98,21.05
-0.18,-0.25,1.62,-12.75,-26.35,9.14
-0.07,-0.28,1.49,-30.59,-43.38,-2.07
0.06,-0.41,1.34,-51.6,-58.34,-14.17
0.06,-0.41,1.34,-51.6,-58.34,-14.17
0.17,-0.63,1.16,-73.04,-69.54,-26.8
0.17,-0.84,1.05,-93.58,-77.1,-38.97
0.15,-1.06,0.85,-112.72,-81.48,-52.81
0.32,-1.32,0.54,-126.95,-81.59,-68.9
0.32,-1.38,0.28,-133.7,-77.72,-79.91
0.32,-1.38,0.28,-133.7,-77.72,-79.91
0.19,-1.31,0.25,-129.99,-72.75,-87.25
0.07,-1.16,0.41,-116.33,-64.49,-96.14
-0.01,-1.03,0.51,-99.75,-53.97,-107.07
-0.06,-0.82,0.52,-83.1,-43.63,-116.62
-0.09,-0.67,0.53,-67.64,-33.24,-124.61
-0.09,-0.67,0.53,-67.64,-33.24,-124.61
-0.09,-0.56,0.58,-53.73,-23.55,-130.92
-0.13,-0.41,0.61,-41.76,-13.9,-133.88
-0.25,-0.21,0.6,-32.59,-4.44,-132.38
-0.36,-0.01,0.59,-26.08,3.69,-128.83
-0.38,0.12,0.58,-22.11,10.23,-125.38
-0.38,0.12,0.58,-22.11,10.23,-125.38
-0.34,0.21,0.59,-20.3,14.99,-121.33
-0.3,0.31,0.65,-20.19,18.09,-115.15
-0.25,0.37,0.7,-21.32,20.39,-106.85
-0.16,0.37,0.71,-23.18,22.98,-96.91
-0.08,0.38,0.7,-24.96,26.14,-84.96
-0.08,0.38,0.7,-24.96,26.14,-84.96
-0.01,0.4,0.69,-26.41,29.74,-71.21
0.1,0.46,0.71,-26.75,33.6,-56.29
0.23,0.53,0.77,-25.7,37.82,-40.79
0.37,0.57,0.85,-23.21,42.59,-24.73
0.45,0.62,0.95,-18.76,47.95,-7.79
0.45,0.62,0.95,-18.76,47.95,-7.79
0.45,0.68,1.04,-12.41,53.68,9.47
0.4,0.68,1.1,-4.87,59.15,26.49
0.29,0.67,1.15,3.81,63.24,44.2
0.15,0.67,1.19,14.02,64.61,62.12
0.03,0.7,1.25,25.73,62.5,78.66
0.03,0.7,1.25,25.73,62.5,78.66
-0.01,0.75,1.32,37.92,56.74,92.98
0.03,0.78,1.4,48.99,47.54,105.14
0.14,0.79,1.5,57.62,35.19,115.57
0.23,0.76,1.59,62.77,20.38,124.54
0.28,0.67,1.62,63.96,3.9,131.83
0.28,0.67,1.62,63.96,3.9,131.83
0.29,0.54,1.59,61.68,-13.7,137.28
0.3,0.4,1.54,57.1,-32.24,141.16
0.31,0.26,1.51,51.19,-51.43,144.02
0.32,0.12,1.48,44.73,-70.67,145.89
0.33,-0.02,1.45,38.44,-89.43,146.44
0.33,-0.02,1.45,38.44,-89.43,146.44
0.36,-0.15,1.41,32.74,-107.35,145.56
0.38,-0.3,1.38,27.46,-123.99,143.08
0.37,-0.45,1.35,22.13,-138.42,138.5
0.35,-0.61,1.31,16.66,-149.55,131.1
0.34,-0.72,1.24,11.5,-157.22,121.05
0.34,-0.72,1.24,11.5,-157.22,121.05
0.38,-0.78,1.17,6.7,-161.14,109.11
0.4,-0.8,1.16,2.27,-161.23,95.82
0.41,-0.81,1.15,-1.95,-157.79,81.1
0.38,-0.86,1.08,-6.56,-150.97,64.94
0.38,-0.86,1.08,-11.19,-141.33,48.31
0.32,-0.92,0.98,-11.19,-141.33,48.31
0.24,-0.98,0.91,-15.35,-130.24,31.97
0.14,-1.03,0.89,-18.81,-118.85,15.81
0.04,-1.06,0.88,-21.44,-107.82,-0.77
-0.01,-1.05,0.86,-23.09,-97.49,-18.09
-0.01,-1.05,0.86,-23.84,-87.89,-35.66
-0.04,-1.01,0.84,-23.84,-87.89,-35.66
-0.06,-0.93,0.82,-23.76,-79.32,-52.4
-0.08,-0.83,0.84,-23.19,-71.89,-67.39
-0.14,-0.73,0.88,-22.77,-65.45,-80.6
-0.21,-0.65,0.94,-23.03,-59.09,-92.56
-0.21,-0.65,0.94,-23.03,-59.09,-92.56
-0.3,-0.56,0.98,-24.51,-52.17,-103.8
-0.39,-0.48,1.0,-28.24,-44.41,-114.95
-0.42,-0.42,0.96,-34.72,-35.66,-126.57
-0.36,-0.42,0.85,-43.5,-25.86,-138.41
-0.24,-0.44,0.74,-52.92,-15.42,-148.83
-0.24,-0.44,0.74,-52.92,-15.42,-148.83
-0.14,-0.45,0.67,-61.23,-4.66,-156.09
-0.1,-0.42,0.63,-67.47,6.22,-159.65
-0.11,-0.39,0.59,-71.04,16.98,-160.0
-0.16,-0.34,0.54,-71.65,27.14,-158.19
-0.23,-0.26,0.53,-69.15,36.31,-155.18
-0.23,-0.26,0.53,-69.15,36.31,-155.18
-0.3,-0.16,0.54,-63.87,44.4,-151.9
-0.34,0.0,0.59,-56.58,51.03,-148.68
-0.32,0.21,0.66,-49.05,55.97,-145.75
-0.23,0.46,0.74,-44.03,59.68,-141.03
-0.25,0.79,0.79,-44.21,62.28,-130.7
-0.25,0.79,0.79,-44.21,62.28,-130.7
-0.34,1.04,0.79,-50.16,61.86,-116.41
-0.23,0.93,0.74,-58.86,59.1,-104.64
-0.08,0.76,0.65,-64.64,55.97,-93.3
-0.04,0.73,0.65,-65.7,52.33,-79.51
-0.02,0.72,0.68,-63.39,47.65,-65.26
-0.02,0.72,0.68,-63.39,47.65,-65.26
0.05,0.71,0.71,-57.88,42.78,-50.18
0.16,0.69,0.78,-50.23,38.34,-34.04
0.28,0.67,0.85,-41.94,35.59,-16.57
0.35,0.63,0.89,-33.51,36.18,2.22
0.38,0.6,0.91,-24.92,41.01,21.89
0.38,0.6,0.91,-24.92,41.01,21.89
0.36,0.58,0.91,-16.71,49.54,41.4
0.3,0.53,0.89,-9.05,60.67,59.54
0.22,0.43,0.87,-0.35,72.55,75.54
0.16,0.31,0.86,10.86,83.82,89.07
0.15,0.26,0.86,24.19,94.11,100.12
0.15,0.26,0.86,24.19,94.11,100.12
0.13,0.26,0.89,38.47,103.25,108.56
0.12,0.25,0.96,53.66,110.46,113.29
0.13,0.28,1.08,69.87,115.36,115.26
0.1,0.35,1.25,84.31,117.57,116.64
0.09,0.39,1.42,94.04,116.8,117.34
0.09,0.39,1.42,94.04,116.8,117.34
0.06,0.32,1.55,97.57,113.64,117.1
-0.0,0.15,1.62,94.81,108.4,115.7
-0.12,-0.04,1.68,87.3,101.25,112.94
-0.26,-0.17,1.73,76.74,91.99,108.18
-0.35,-0.25,1.75,63.7,80.54,99.97
-0.35,-0.25,1.75,63.7,80.54,99.97
-0.35,-0.35,1.72,48.41,67.24,87.56
-0.29,-0.48,1.63,31.52,52.54,72.31
-0.21,-0.62,1.51,14.55,36.43,56.49
-0.17,-0.73,1.39,-1.21,19.27,41.33
-0.13,-0.81,1.27,-15.02,1.45,26.72
-0.13,-0.81,1.27,-15.02,1.45,26.72
-0.08,-0.86,1.15,-26.54,-16.22,12.5
-0.03,-0.9,1.06,-35.36,-33.01,-1.16
-0.04,-0.89,0.95,-41.5,-47.82,-13.7
-0.07,-0.8,0.89,-44.76,-60.44,-25.36
-0.08,-0.75,0.84,-45.75,-70.25,-37.09
-0.08,-0.75,0.84,-45.75,-70.25,-37.09
-0.08,-0.7,0.82,-44.12,-77.12,-48.38
-0.1,-0.57,0.86,-41.7,-80.97,-58.47
-0.16,-0.42,0.85,-41.38,-82.13,-67.41
-0.18,-0.33,0.78,-43.04,-81.22,-75.73
-0.18,-0.28,0.72,-45.85,-78.46,-82.45
-0.18,-0.28,0.72,-45.85,-78.46,-82.45
-0.2,-0.22,0.69,-49.61,-74.37,-86.44
-0.2,-0.17,0.64,-54.06,-69.01,-88.7
-0.17,-0.15,0.56,-58.35,-62.17,-90.06
-0.14,-0.12,0.51,-61.25,-53.51,-90.15
-0.11,-0.08,0.49,-62.07,-43.02,-89.22
-0.11,-0.08,0.49,-62.07,-43.02,-89.22
-0.06,-0.02,0.48,-60.57,-31.2,-87.41
-0.01,0.04,0.48,-56.89,-18.66,-84.15
0.05,0.12,0.49,-51.5,-5.73,-78.57
0.1,0.23,0.52,-44.79,7.26,-70.12
0.15,0.35,0.56,-37.33,19.9,-59.12
0.15,0.35,0.56,-37.33,19.9,-59.12
0.19,0.48,0.62,-29.44,31.36,-46.05
0.23,0.6,0.68,-21.44,41.17,-31.37
0.27,0.7,0.76,-13.75,49.41,-15.48
0.3,0.78,0.85,-6.63,56.45,1.11
0.33,0.84,0.95,-0.37,62.8,17.72
0.33,0.84,0.95,-0.37,62.8,17.72
0.34,0.85,1.03,4.87,68.46,33.73
0.34,0.8,1.08,9.19,72.81,49.38
0.32,0.73,1.11,13.07,75.37,65.46
0.28,0.63,1.15,17.08,75.84,82.32
0.25,0.5,1.18,21.8,74.32,99.7
0.25,0.5,1.18,21.8,74.32,99.7
0.19,0.36,1.21,27.66,71.29,116.77
0.09,0.23,1.26,34.93,67.33,132.12
-0.03,0.12,1.34,43.56,62.97,143.87
-0.14,0.03,1.4,53.24,58.42,150.38
-0.19,-0.02,1.44,63.57,53.24,151.27
-0.19,-0.02,1.44,63.57,53.24,151.27
-0.17,0.0,1.51,73.71,46.81,147.64
-0.13,0.05,1.6,82.16,38.69,141.26
