ax,ay,az,gx,gy,gz
0.05,0.6,1.04,-10.66,37.71,14.65
0.08,0.61,1.07,-7.74,36.92,23.26
0.13,0.62,1.09,-5.1,35.76,31.98
0.16,0.66,1.12,-2.99,34.28,41.07
0.16,0.66,1.12,-2.99,34.28,41.07
0.2,0.67,1.14,-1.6,32.62,49.81
0.23,0.64,1.14,-0.53,31.04,58.23
0.24,0.61,1.15,0.59,29.43,66.85
0.26,0.58,1.17,1.62,27.75,75.39
0.26,0.58,1.17,2.52,26.27,83.92
0.27,0.54,1.19,2.52,26.27,83.92
0.27,0.48,1.2,3.09,25.11,92.4
0.24,0.38,1.2,3.48,24.37,100.62
0.16,0.3,1.21,4.08,23.84,108.58
0.07,0.2,1.22,5.09,23.12,115.05
0.07,0.2,1.22,6.88,22.1,119.14
-0.01,0.11,1.23,6.88,22.1,119.14
-0.07,0.01,1.26,9.63,20.62,120.82
-0.08,-0.07,1.3,13.08,18.48,119.95
-0.06,-0.12,1.34,16.91,15.81,117.28
-0.05,-0.16,1.39,20.61,12.52,113.71
-0.05,-0.16,1.39,20.61,12.52,113.71
-0.06,-0.2,1.43,23.86,8.64,109.52
-0.08,-0.28,1.45,26.5,4.11,104.87
-0.12,-0.36,1.46,28.31,-1.18,100.09
-0.15,-0.43,1.45,29.17,-7.33,95.21
-0.16,-0.5,1.44,29.32,-14.27,90.05
-0.16,-0.5,1.44,29.32,-14.27,90.05
-0.17,-0.55,1.41,28.92,-21.89,84.39
-0.18,-0.6,1.38,28.11,-29.93,77.76
-0.18,-0.65,1.33,27.15,-38.14,69.88
-0.16,-0.68,1.26,26.21,-46.29,60.97
-0.13,-0.72,1.19,25.5,-54.01,51.5
-0.13,-0.72,1.19,25.5,-54.01,51.5
-0.1,-0.74,1.12,25.36,-61.07,41.76
-0.09,-0.73,1.05,25.78,-67.29,31.86
-0.08,-0.71,0.99,26.6,-72.57,21.87
-0.07,-0.68,0.94,27.5,-76.82,11.95
-0.06,-0.65,0.9,28.05,-80.09,2.21
-0.06,-0.65,0.9,28.05,-80.09,2.21
-0.08,-0.62,0.85,27.97,-82.33,-7.4
-0.11,-0.58,0.8,27.32,-83.33,-17.03
-0.15,-0.52,0.77,26.28,-82.87,-26.87
-0.17,-0.45,0.76,24.75,-80.85,-36.96
-0.21,-0.37,0.76,22.31,-77.26,-47.24
-0.21,-0.37,0.76,22.31,-77.26,-47.24
-0.24,-0.29,0.76,18.49,-72.25,-57.73
-0.27,-0.2,0.75,13.15,-66.05,-68.39
-0.28,-0.12,0.75,6.35,-58.82,-78.94
-0.28,-0.04,0.76,-1.9,-50.91,-88.95
-0.3,0.02,0.77,-11.96,-42.81,-98.12
-0.3,0.02,0.77,-11.96,-42.81,-98.12
-0.29,0.05,0.73,-23.8,-34.95,-106.26
-0.28,0.05,0.68,-36.63,-27.67,-112.97
-0.27,0.04,0.65,-49.16,-21.2,-117.91
-0.25,0.03,0.62,-60.31,-15.8,-120.96
-0.23,0.04,0.6,-69.42,-11.48,-122.1
-0.23,0.04,0.6,-69.42,-11.48,-122.1
-0.22,0.07,0.6,-76.07,-8.17,-121.34
-0.21,0.13,0.61,-80.27,-5.59,-118.78
-0.19,0.21,0.63,-82.43,-3.36,-114.67
-0.17,0.31,0.66,-83.25,-0.83,-109.49
-0.15,0.43,0.69,-83.72,2.24,-103.81
-0.15,0.43,0.69,-83.72,2.24,-103.81
-0.1,0.52,0.73,-84.61,5.54,-98.4
-0.01,0.56,0.77,-85.76,9.35,-93.73
0.07,0.57,0.76,-86.27,14.39,-88.57
0.13,0.54,0.71,-84.42,20.74,-81.9
0.12,0.49,0.7,-77.83,28.26,-73.45
0.12,0.49,0.7,-77.83,28.26,-73.45
0.05,0.49,0.78,-66.04,36.54,-63.43
-0.02,0.56,0.86,-51.35,44.43,-52.72
-0.04,0.68,0.91,-35.42,51.07,-41.29
-0.02,0.8,0.96,-19.14,56.2,-28.82
0.0,0.92,1.05,-3.24,59.81,-15.0
0.0,0.92,1.05,-3.24,59.81,-15.0
0.02,1.0,1.13,10.92,61.96,0.07
0.04,1.03,1.17,22.03,62.98,15.92
0.03,0.99,1.18,29.64,62.62,31.94
0.03,0.91,1.18,34.47,60.41,47.38
0.07,0.81,1.18,37.8,56.13,61.95
0.07,0.81,1.18,37.8,56.13,61.95
0.14,0.72,1.18,39.99,50.24,75.66
0.21,0.61,1.21,40.69,43.29,88.36
0.25,0.48,1.23,39.77,35.9,99.83
0.25,0.34,1.25,37.56,28.46,109.56
0.21,0.18,1.27,34.66,21.17,116.9
0.21,0.18,1.27,34.66,21.17,116.9
0.16,0.03,1.3,31.68,13.75,121.41
0.19,-0.11,1.31,28.78,6.26,122.97
0.17,-0.14,1.36,25.6,-0.6,123.0
0.15,-0.22,1.35,21.74,-7.45,120.85
0.14,-0.38,1.28,19.83,-13.37,115.32
0.14,-0.38,1.28,19.83,-13.37,115.32
0.13,-0.53,1.33,21.22,-17.67,106.79
0.12,-0.62,1.4,24.54,-21.08,97.5
0.09,-0.61,1.4,28.11,-23.78,89.18
0.06,-0.56,1.41,30.97,-26.13,81.13
0.07,-0.58,1.38,32.26,-29.05,72.13
0.07,-0.58,1.38,32.26,-29.05,72.13
0.07,-0.63,1.32,32.96,-32.34,63.02
0.03,-0.66,1.28,33.65,-35.98,54.14
-0.01,-0.66,1.22,33.91,-40.16,45.71
-0.04,-0.65,1.15,33.83,-44.8,37.92
-0.06,-0.65,1.1,33.55,-49.56,30.2
-0.06,-0.65,1.1,33.55,-49.56,30.2
-0.1,-0.63,1.05,33.11,-54.19,22.31
-0.16,-0.61,0.98,32.77,-58.55,13.77
-0.19,-0.59,0.92,33.15,-62.47,4.15
-0.19,-0.56,0.91,34.51,-65.78,-6.16
-0.17,-0.48,0.94,35.68,-68.38,-16.26
-0.17,-0.48,0.94,35.68,-68.38,-16.26
-0.16,-0.4,0.96,35.31,-70.08,-25.59
-0.19,-0.33,0.98,33.09,-70.19,-34.21
-0.25,-0.28,0.96,29.08,-68.13,-42.71
-0.29,-0.24,0.92,23.41,-63.88,-51.62
-0.3,-0.21,0.88,16.49,-58.1,-60.63
-0.3,-0.21,0.88,16.49,-58.1,-60.63
-0.28,-0.18,0.86,8.68,-51.46,-69.0
-0.27,-0.16,0.85,0.2,-44.31,-76.28
-0.26,-0.15,0.83,-8.48,-36.82,-82.37
-0.25,-0.15,0.79,-16.63,-29.17,-87.36
-0.25,-0.15,0.77,-23.62,-21.59,-91.12
-0.25,-0.15,0.77,-23.62,-21.59,-91.12
-0.27,-0.13,0.75,-29.24,-14.36,-93.62
-0.28,-0.09,0.76,-33.45,-7.61,-95.24
-0.31,-0.04,0.79,-36.41,-1.33,-96.15
-0.35,0.05,0.8,-38.74,4.41,-96.49
-0.37,0.1,0.78,-41.24,8.95,-96.16
-0.37,0.1,0.78,-41.24,8.95,-96.16
-0.37,0.16,0.79,-43.26,12.27,-95.08
-0.34,0.26,0.83,-45.39,14.72,-93.89
-0.27,0.36,0.83,-48.7,16.06,-92.78
-0.18,0.43,0.82,-52.96,16.58,-91.62
-0.07,0.49,0.82,-57.63,16.82,-90.43
-0.07,0.49,0.82,-57.63,16.82,-90.43
0.04,0.52,0.81,-62.6,17.06,-88.82
0.13,0.54,0.8,-67.22,17.58,-86.45
0.2,0.52,0.78,-70.4,18.94,-83.25
0.24,0.51,0.77,-71.19,21.42,-78.43
0.21,0.52,0.76,-69.26,25.07,-71.73
0.21,0.52,0.76,-69.26,25.07,-71.73
0.18,0.53,0.75,-64.35,29.74,-64.04
0.17,0.55,0.75,-56.05,35.35,-55.67
0.13,0.61,0.76,-44.57,41.46,-46.59
0.08,0.7,0.8,-30.57,47.15,-37.39
0.05,0.82,0.86,-14.97,51.66,-28.35
0.05,0.82,0.86,-14.97,51.66,-28.35
0.04,0.93,0.95,0.79,54.24,-19.37
0.08,1.02,1.03,14.85,54.4,-10.39
0.12,1.07,1.11,26.02,52.17,-1.27
0.15,1.05,1.18,33.77,48.02,8.18
0.13,0.99,1.23,38.14,42.6,18.1
0.13,0.99,1.23,38.14,42.6,18.1
0.11,0.91,1.27,39.79,36.37,28.05
0.12,0.81,1.3,39.44,29.68,37.56
0.13,0.7,1.33,37.46,22.89,46.51
0.14,0.59,1.35,34.11,16.4,54.65
0.16,0.47,1.33,29.88,10.63,61.7
0.16,0.47,1.33,29.88,10.63,61.7
0.18,0.35,1.32,25.25,5.83,67.65
0.21,0.25,1.32,20.53,2.03,72.48
0.23,0.15,1.3,16.05,-0.85,76.11
0.25,0.06,1.29,12.28,-2.92,78.68
0.26,-0.03,1.29,9.5,-4.32,80.56
0.26,-0.03,1.29,9.5,-4.32,80.56
0.22,-0.11,1.28,7.85,-5.24,82.22
0.13,-0.19,1.28,7.24,-6.08,83.63
0.0,-0.28,1.28,7.45,-7.41,84.09
-0.01,-0.45,1.28,8.64,-9.61,82.71
-0.1,-0.47,1.29,10.73,-12.22,81.97
-0.1,-0.47,1.29,10.73,-12.22,81.97
-0.16,-0.5,1.3,12.89,-16.96,79.68
-0.09,-0.59,1.22,16.03,-22.59,73.52
-0.03,-0.7,1.19,21.35,-28.04,66.55
-0.08,-0.67,1.26,27.82,-33.75,61.31
-0.1,-0.59,1.27,32.74,-40.16,55.55
-0.1,-0.59,1.27,32.74,-40.16,55.55
-0.07,-0.55,1.22,35.32,-46.5,48.8
-0.06,-0.54,1.2,35.43,-52.33,41.97
-0.04,-0.55,1.15,32.94,-57.43,34.17
0.01,-0.58,1.08,28.53,-61.14,25.07
0.03,-0.61,1.02,23.09,-63.04,15.64
0.03,-0.61,1.02,23.09,-63.04,15.64
0.01,-0.62,0.97,16.94,-63.44,6.55
-0.05,-0.63,0.9,10.33,-62.7,-2.46
-0.11,-0.63,0.85,3.81,-61.04,-11.81
-0.15,-0.63,0.8,-2.13,-58.56,-21.39
-0.2,-0.6,0.76,-7.3,-55.45,-30.66
-0.2,-0.6,0.76,-7.3,-55.45,-30.66
-0.24,-0.55,0.73,-11.6,-51.94,-39.47
-0.27,-0.49,0.72,-15.06,-47.98,-48.01
-0.27,-0.41,0.71,-18.02,-43.66,-56.2
-0.27,-0.33,0.73,-20.99,-39.14,-63.75
-0.28,-0.24,0.75,-24.56,-34.38,-70.45
-0.28,-0.24,0.75,-24.56,-34.38,-70.45
-0.29,-0.17,0.77,-29.24,-29.45,-76.34
-0.3,-0.12,0.76,-35.28,-24.63,-81.41
-0.33,-0.08,0.75,-42.68,-20.22,-85.62
-0.37,-0.06,0.72,-51.06,-16.49,-88.91
-0.38,-0.07,0.7,-59.43,-13.53,-91.65
-0.38,-0.07,0.7,-59.43,-13.53,-91.65
-0.38,-0.06,0.68,-67.05,-11.13,-93.61
-0.36,-0.03,0.67,-73.46,-9.26,-94.76
-0.34,0.02,0.64,-78.74,-7.73,-95.44
-0.29,0.05,0.61,-82.82,-6.5,-95.36
-0.26,0.11,0.59,-84.88,-5.24,-94.03
-0.26,0.11,0.59,-84.88,-5.24,-94.03
-0.22,0.2,0.59,-84.79,-3.82,-91.98
-0.16,0.3,0.59,-82.89,-2.12,-89.89
-0.08,0.42,0.59,-79.29,0.36,-87.47
0.02,0.54,0.6,-73.9,4.01,-84.48
0.12,0.66,0.61,-66.54,8.97,-80.85
0.12,0.66,0.61,-66.54,8.97,-80.85
0.21,0.77,0.65,-57.07,15.03,-76.54
0.28,0.86,0.7,-45.72,22.12,-71.0
0.29,0.96,0.74,-32.92,30.1,-63.11
0.25,1.08,0.79,-19.57,38.68,-52.58
0.18,1.21,0.85,-7.16,47.3,-39.51
0.18,1.21,0.85,-7.16,47.3,-39.51
0.08,1.31,0.91,3.14,54.93,-24.7
-0.02,1.37,0.97,10.98,60.96,-9.21
-0.08,1.37,1.04,16.58,64.71,5.88
-0.06,1.32,1.1,20.0,65.72,20.15
0.01,1.25,1.15,21.28,64.25,34.38
0.01,1.25,1.15,21.28,64.25,34.38
0.08,1.16,1.2,20.26,60.99,48.95
0.14,1.02,1.24,17.05,56.73,63.54
0.17,0.84,1.25,12.46,52.02,77.84
0.17,0.64,1.25,7.38,47.17,91.7
0.1,0.44,1.25,2.38,42.31,104.63
0.1,0.44,1.25,2.38,42.31,104.63
-0.0,0.22,1.27,-1.97,37.34,115.38
-0.07,0.01,1.27,-4.84,31.85,122.66
-0.06,-0.2,1.3,-5.92,25.85,125.99
0.01,-0.38,1.32,-5.23,19.51,125.81
0.1,-0.52,1.34,-2.62,13.51,122.9
0.1,-0.52,1.34,-2.62,13.51,122.9
0.16,-0.64,1.3,2.52,8.47,118.12
0.15,-0.73,1.33,10.26,4.54,112.36
0.15,-0.78,1.34,19.29,0.94,106.04
0.1,-0.74,1.37,28.14,-2.22,99.7
0.07,-0.74,1.34,35.99,-6.06,92.57
0.07,-0.74,1.34,35.99,-6.06,92.57
0.06,-0.81,1.27,44.0,-10.21,84.47
-0.01,-0.82,1.3,52.72,-14.77,75.93
-0.05,-0.81,1.33,60.16,-20.33,66.81
-0.08,-0.76,1.31,65.28,-26.65,57.81
-0.12,-0.68,1.28,67.24,-33.9,48.72
-0.12,-0.68,1.28,67.24,-33.9,48.72
-0.12,-0.66,1.21,65.57,-42.49,38.53
-0.11,-0.67,1.13,61.39,-51.39,27.45
-0.11,-0.66,1.07,55.95,-59.39,15.88
-0.11,-0.62,1.03,49.76,-65.78,3.96
-0.12,-0.55,1.0,42.8,-69.64,-8.24
-0.12,-0.55,1.0,42.8,-69.64,-8.24
-0.14,-0.47,0.97,34.89,-70.8,-20.67
-0.18,-0.4,0.94,25.74,-69.7,-33.18
-0.2,-0.34,0.91,15.21,-66.71,-45.58
-0.22,-0.29,0.88,3.31,-62.37,-57.23
-0.22,-0.23,0.84,-9.76,-57.32,-68.0
-0.22,-0.23,0.84,-9.76,-57.32,-68.0
-0.21,-0.2,0.82,-23.8,-52.04,-77.35
-0.2,-0.16,0.8,-38.06,-46.73,-84.75
-0.18,-0.15,0.76,-51.72,-41.12,-90.04
-0.15,-0.12,0.73,-63.87,-34.99,-93.65
-0.12,-0.14,0.71,-74.16,-28.51,-95.97
-0.12,-0.14,0.71,-74.16,-28.51,-95.97
-0.14,-0.16,0.69,-81.8,-21.8,-96.43
-0.18,-0.16,0.66,-85.85,-15.05,-95.17
-0.21,-0.1,0.65,-85.65,-8.59,-93.41
-0.22,0.03,0.71,-81.45,-2.54,-91.69
-0.22,0.24,0.78,-75.15,3.06,-89.63
-0.22,0.24,0.78,-75.15,3.06,-89.63
-0.22,0.46,0.83,-69.17,7.58,-87.32
-0.17,0.63,0.85,-64.48,10.59,-85.17
-0.1,0.75,0.83,-60.72,12.56,-82.26
-0.04,0.84,0.84,-57.25,13.75,-77.5
0.0,0.86,0.85,-53.47,14.53,-70.9
0.0,0.86,0.85,-53.47,14.53,-70.9
0.03,0.86,0.87,-48.99,15.58,-62.61
0.05,0.86,0.89,-44.05,17.32,-53.03
0.06,0.87,0.89,-38.57,19.92,-42.46
0.07,0.88,0.9,-32.17,23.24,-30.82
0.07,0.89,0.93,-24.97,26.91,-18.23
0.07,0.89,0.93,-24.97,26.91,-18.23
0.06,0.93,0.97,-17.46,30.44,-5.04
0.06,0.96,1.02,-10.17,33.33,8.27
0.08,0.98,1.06,-3.75,35.29,21.31
0.09,0.95,1.13,1.41,36.15,34.09
0.08,0.88,1.17,5.05,36.08,46.68
0.08,0.88,1.17,5.05,36.08,46.68
0.04,0.76,1.2,7.04,35.2,58.65
-0.01,0.61,1.22,8.0,33.6,69.25
-0.03,0.44,1.24,8.78,31.12,77.94
-0.01,0.29,1.27,9.83,27.61,84.63
0.02,0.16,1.3,11.22,23.39,89.44
0.02,0.16,1.3,11.22,23.39,89.44
0.05,0.04,1.32,12.74,18.71,92.7
0.06,-0.08,1.33,14.14,13.56,94.46
0.06,-0.19,1.34,15.46,7.96,94.62
0.07,-0.3,1.35,16.78,2.13,93.34
0.07,-0.4,1.34,17.97,-3.77,91.01
0.07,-0.4,1.34,17.97,-3.77,91.01
0.07,-0.48,1.32,19.17,-9.5,87.85
0.06,-0.56,1.29,20.78,-14.97,83.75
0.04,-0.64,1.26,22.67,-20.51,78.44
0.04,-0.7,1.21,25.21,-25.9,72.16
-0.01,-0.74,1.16,28.5,-31.25,65.55
-0.01,-0.74,1.16,28.5,-31.25,65.55
0.08,-0.86,1.11,32.87,-36.68,58.06
-0.02,-0.71,1.05,38.3,-41.06,53.91
-0.11,-0.65,1.06,43.11,-46.66,48.78
0.0,-0.77,0.99,48.28,-51.97,38.1
0.0,-0.77,0.99,54.68,-55.38,26.95
0.06,-0.79,0.92,54.68,-55.38,26.95
0.04,-0.71,0.93,61.19,-57.93,18.0
0.03,-0.61,0.94,66.69,-59.27,9.7
0.03,-0.52,0.94,70.22,-59.85,1.58
-0.02,-0.45,0.93,70.96,-60.15,-5.81
-0.02,-0.45,0.93,68.86,-60.06,-12.88
-0.08,-0.4,0.89,68.86,-60.06,-12.88
-0.14,-0.37,0.86,64.27,-59.57,-20.24
-0.18,-0.33,0.84,57.69,-58.72,-27.71
-0.21,-0.28,0.82,49.64,-57.27,-35.09
-0.24,-0.24,0.81,40.56,-55.05,-42.47
-0.24,-0.24,0.81,40.56,-55.05,-42.47
-0.25,-0.18,0.81,30.58,-52.07,-50.08
-0.24,-0.14,0.8,19.55,-48.34,-57.81
-0.22,-0.11,0.77,7.64,-43.93,-64.78
-0.21,-0.09,0.75,-4.72,-38.94,-70.36
-0.21,-0.09,0.72,-16.99,-33.59,-74.73
-0.21,-0.09,0.72,-16.99,-33.59,-74.73
-0.2,-0.11,0.71,-28.16,-27.8,-78.15
-0.21,-0.1,0.69,-37.52,-21.22,-80.2
-0.22,-0.06,0.68,-44.59,-14.08,-81.32
-0.22,0.02,0.68,-49.56,-6.69,-82.38
-0.21,0.08,0.67,-53.25,-0.01,-82.77
-0.21,0.08,0.67,-53.25,-0.01,-82.77
-0.19,0.15,0.68,-55.43,5.45,-81.86
-0.17,0.23,0.7,-56.29,10.01,-80.13
-0.14,0.32,0.74,-56.53,13.74,-78.09
-0.1,0.42,0.76,-56.49,16.95,-75.67
-0.06,0.53,0.79,-56.09,20.24,-72.76
-0.06,0.53,0.79,-56.09,20.24,-72.76
-0.01,0.63,0.82,-55.32,23.85,-69.66
0.05,0.73,0.87,-53.92,27.98,-66.39
0.11,0.82,0.91,-52.12,32.74,-62.61
0.13,0.9,0.95,-50.12,37.96,-57.63
0.12,0.95,0.97,-47.91,43.23,-51.63
0.12,0.95,0.97,-47.91,43.23,-51.63
0.1,0.92,0.97,-45.26,47.99,-44.18
0.08,0.89,0.99,-40.84,51.79,-34.68
0.06,0.89,1.03,-34.41,54.75,-23.81
0.04,0.93,1.08,-26.36,56.57,-12.43
0.02,0.96,1.13,-17.44,57.26,-1.34
0.02,0.96,1.13,-17.44,57.26,-1.34
0.02,1.0,1.2,-8.41,56.69,9.23
0.04,1.02,1.26,-0.66,54.86,19.35
0.04,1.0,1.29,4.86,51.5,29.12
0.04,0.94,1.32,7.8,46.81,38.14
0.04,0.84,1.33,8.48,40.8,46.23
0.04,0.84,1.33,8.48,40.8,46.23
0.06,0.67,1.32,7.97,33.77,52.99
0.11,0.49,1.31,7.42,26.4,58.62
0.16,0.34,1.32,7.73,19.23,63.67
0.19,0.2,1.34,9.03,12.49,67.95
0.19,0.08,1.34,11.05,6.24,71.3
0.19,0.08,1.34,11.05,6.24,71.3
0.17,-0.01,1.34,13.62,0.29,73.77
0.16,-0.08,1.34,16.12,-5.66,75.4
0.13,-0.13,1.34,17.91,-11.84,76.25
0.11,-0.2,1.3,18.62,-18.26,76.12
0.1,-0.28,1.26,18.88,-24.58,74.98
0.1,-0.28,1.26,18.88,-24.58,74.98
0.09,-0.37,1.22,19.3,-30.48,73.06
0.08,-0.46,1.19,19.99,-35.86,70.65
0.09,-0.53,1.17,20.6,-40.8,67.93
0.09,-0.6,1.13,20.87,-45.41,65.07
0.07,-0.67,1.1,20.83,-49.78,61.83
0.07,-0.67,1.1,20.83,-49.78,61.83
0.05,-0.73,1.06,20.68,-53.78,57.77
0.03,-0.79,1.03,20.59,-57.2,52.58
0.03,-0.81,1.0,20.58,-59.91,46.41
0.02,-0.81,0.99,20.43,-61.88,39.81
-0.01,-0.79,0.97,19.71,-63.2,32.9
-0.01,-0.79,0.97,19.71,-63.2,32.9
-0.02,-0.76,0.95,18.04,-63.98,25.41
-0.04,-0.74,0.92,15.26,-64.05,17.14
-0.06,-0.74,0.9,11.33,-63.4,8.36
-0.11,-0.73,0.89,6.38,-61.98,-0.66
-0.18,-0.73,0.88,0.81,-59.56,-9.94
-0.18,-0.73,0.88,0.81,-59.56,-9.94
-0.27,-0.7,0.86,-4.79,-55.93,-19.63
-0.34,-0.66,0.84,-10.12,-51.13,-29.83
-0.39,-0.59,0.81,-15.16,-45.53,-40.45
-0.41,-0.52,0.81,-19.97,-39.59,-51.1
-0.4,-0.44,0.82,-24.74,-33.52,-61.37
-0.4,-0.44,0.82,-24.74,-33.52,-61.37
-0.37,-0.37,0.81,-29.57,-27.47,-70.74
-0.36,-0.3,0.79,-34.45,-21.62,-78.72
-0.35,-0.24,0.77,-39.41,-16.23,-85.12
-0.36,-0.19,0.74,-44.46,-11.71,-90.07
-0.34,-0.15,0.7,-49.37,-8.09,-93.74
-0.34,-0.15,0.7,-49.37,-8.09,-93.74
-0.3,-0.12,0.67,-53.72,-5.19,-96.26
-0.27,-0.06,0.67,-57.05,-2.64,-97.76
-0.25,0.01,0.66,-59.16,0.05,-98.49
-0.22,0.09,0.65,-59.53,3.12,-98.83
-0.18,0.18,0.66,-58.44,6.71,-99.11
-0.18,0.18,0.66,-58.44,6.71,-99.11
-0.16,0.32,0.67,-56.31,10.61,-98.49
-0.12,0.49,0.69,-53.84,14.42,-97.44
-0.06,0.64,0.69,-52.19,17.92,-95.76
0.01,0.74,0.69,-50.43,20.64,-92.62
0.07,0.82,0.72,-47.57,23.15,-88.11
0.07,0.82,0.72,-47.57,23.15,-88.11
0.14,0.88,0.76,-44.37,25.2,-82.74
0.19,0.93,0.78,-41.0,26.93,-75.47
0.21,0.96,0.8,-36.72,28.64,-65.65
0.22,0.96,0.83,-30.76,30.77,-54.26
0.21,0.97,0.86,-23.24,33.75,-41.88
0.21,0.97,0.86,-23.24,33.75,-41.88
0.17,0.99,0.89,-14.26,37.2,-28.77
0.13,1.01,0.93,-4.01,40.78,-15.75
0.12,1.05,0.98,6.37,44.42,-3.21
0.12,1.06,1.04,15.73,47.57,8.85
0.15,1.04,1.08,23.42,50.13,20.8
0.15,1.04,1.08,23.42,50.13,20.8
0.17,1.0,1.11,29.27,52.5,33.21
0.18,0.93,1.14,33.49,54.72,46.41
0.18,0.84,1.16,36.36,56.77,60.16
0.16,0.73,1.15,38.46,58.53,74.16
0.09,0.6,1.17,40.16,59.72,88.03
0.09,0.6,1.17,40.16,59.72,88.03
-0.03,0.48,1.18,41.3,59.91,100.9
-0.14,0.35,1.19,42.14,58.64,111.47
-0.17,0.22,1.2,43.24,55.6,118.99
-0.17,0.1,1.24,44.68,50.95,123.5
-0.14,-0.01,1.28,46.35,44.82,125.52
-0.14,-0.01,1.28,46.35,44.82,125.52
-0.14,-0.11,1.33,47.96,37.58,125.68
-0.16,-0.21,1.36,49.48,29.59,124.26
-0.18,-0.29,1.41,50.78,21.33,121.17
-0.17,-0.35,1.44,51.12,13.04,116.41
-0.16,-0.39,1.46,49.74,4.74,110.44
-0.16,-0.39,1.46,49.74,4.74,110.44
-0.13,-0.44,1.45,46.48,-3.48,103.23
-0.09,-0.51,1.4,41.74,-11.42,94.78
-0.04,-0.6,1.33,36.34,-18.82,85.71
-0.01,-0.67,1.25,31.01,-25.77,76.65
-0.0,-0.74,1.15,26.37,-32.31,67.92
-0.0,-0.74,1.15,26.37,-32.31,67.92
-0.02,-0.8,1.04,23.55,-38.26,59.35
-0.05,-0.84,0.97,23.19,-43.86,50.56
-0.06,-0.82,0.93,24.96,-49.23,41.35
-0.07,-0.75,0.92,27.7,-54.12,31.64
-0.08,-0.68,0.91,30.29,-58.12,21.15
-0.08,-0.68,0.91,30.29,-58.12,21.15
-0.08,-0.62,0.89,31.83,-61.18,9.63
-0.09,-0.56,0.86,31.96,-63.14,-2.64
-0.14,-0.5,0.84,30.77,-64.07,-15.14
-0.18,-0.4,0.84,28.39,-63.91,-27.69
-0.21,-0.3,0.84,24.63,-62.48,-40.32
-0.21,-0.3,0.84,24.63,-62.48,-40.32
-0.22,-0.19,0.84,19.13,-59.94,-52.94
-0.21,-0.07,0.84,11.46,-56.71,-65.33
-0.2,0.03,0.84,1.39,-53.17,-77.11
-0.2,0.11,0.82,-10.78,-49.62,-87.72
-0.22,0.17,0.79,-24.57,-46.31,-96.56
-0.22,0.17,0.79,-24.57,-46.31,-96.56
-0.23,0.2,0.75,-39.31,-43.36,-103.41
-0.23,0.21,0.71,-54.09,-40.8,-108.32
-0.2,0.17,0.68,-67.88,-38.58,-111.26
-0.17,0.16,0.67,-79.21,-36.3,-111.98
-0.16,0.17,0.66,-87.33,-33.18,-110.9
-0.16,0.17,0.66,-87.33,-33.18,-110.9
-0.16,0.19,0.65,-91.77,-29.11,-108.64
-0.14,0.26,0.67,-92.44,-23.97,-105.39
-0.1,0.39,0.68,-90.58,-17.87,-101.18
-0.04,0.46,0.71,-86.69,-11.29,-96.26
0.03,0.54,0.76,-80.09,-3.56,-90.29
0.03,0.54,0.76,-80.09,-3.56,-90.29
0.05,0.64,0.81,-72.04,5.07,-82.65
0.03,0.76,0.84,-63.74,13.6,-73.43
0.01,0.86,0.87,-55.99,21.47,-63.62
0.01,0.88,0.9,-48.89,28.11,-53.05
0.01,0.92,0.94,-41.83,33.25,-40.48
0.01,0.92,0.94,-41.83,33.25,-40.48
0.01,0.95,0.97,-35.41,36.8,-26.46
0.03,0.94,1.01,-29.25,39.03,-12.06
0.04,0.92,1.05,-23.06,40.52,2.12
0.08,0.91,1.08,-17.53,41.43,15.24
0.12,0.88,1.11,-13.21,41.86,27.36
0.12,0.88,1.11,-13.21,41.86,27.36
0.15,0.81,1.16,-10.11,41.83,38.69
0.17,0.73,1.2,-8.16,41.26,49.22
0.16,0.63,1.23,-7.51,40.08,59.16
0.14,0.51,1.25,-8.0,38.18,68.83
0.06,0.39,1.27,-9.38,35.46,78.06
