ax,ay,az,gx,gy,gz
-0.47,-0.18,0.74,-17.58,-19.77,-74.34
-0.47,-0.18,0.74,-17.58,-19.77,-74.34
-0.46,-0.13,0.73,-23.51,-17.69,-77.72
-0.45,-0.05,0.72,-28.78,-15.83,-80.55
-0.44,0.05,0.71,-33.47,-14.28,-82.96
-0.41,0.15,0.7,-37.76,-13.23,-84.89
-0.36,0.25,0.72,-41.78,-12.65,-86.06
-0.36,0.25,0.72,-41.78,-12.65,-86.06
-0.3,0.35,0.73,-45.69,-12.2,-86.32
-0.23,0.44,0.73,-49.64,-11.44,-85.57
-0.16,0.53,0.73,-53.49,-10.05,-83.85
-0.09,0.61,0.75,-56.84,-7.74,-81.22
-0.03,0.69,0.78,-59.44,-4.43,-77.5
-0.03,0.69,0.78,-59.44,-4.43,-77.5
0.0,0.77,0.81,-61.17,-0.33,-72.33
0.02,0.85,0.84,-61.91,4.34,-65.6
0.03,0.93,0.87,-61.55,9.13,-57.63
0.06,1.0,0.91,-59.94,13.73,-48.82
0.06,1.0,0.91,-57.17,18.04,-39.23
0.09,1.04,0.97,-57.17,18.04,-39.23
0.1,1.07,1.04,-53.46,22.04,-28.6
0.1,1.08,1.11,-49.35,25.79,-16.78
0.08,1.06,1.16,-45.27,29.39,-4.04
0.05,0.99,1.19,-41.32,32.74,8.97
0.05,0.99,1.19,-37.24,35.55,21.89
0.03,0.9,1.22,-37.24,35.55,21.89
0.02,0.81,1.25,-32.65,37.31,34.28
0.04,0.73,1.29,-27.45,37.67,45.67
0.07,0.65,1.34,-21.98,36.7,55.99
0.09,0.57,1.37,-16.87,34.68,65.24
0.09,0.57,1.37,-16.87,34.68,65.24
0.11,0.47,1.39,-12.44,31.82,73.36
0.13,0.35,1.4,-8.74,28.15,80.24
0.15,0.23,1.41,-5.54,23.68,85.87
0.17,0.1,1.4,-2.74,18.58,90.19
0.19,-0.02,1.39,-0.16,13.07,93.19
0.19,-0.02,1.39,-0.16,13.07,93.19
0.21,-0.14,1.39,2.35,7.53,94.9
0.23,-0.28,1.38,4.98,2.18,95.41
0.23,-0.4,1.37,7.85,-2.88,94.76
0.21,-0.52,1.34,11.12,-7.59,92.92
0.17,-0.62,1.31,15.08,-12.02,90.06
0.17,-0.62,1.31,15.08,-12.02,90.06
0.1,-0.7,1.28,19.77,-16.18,86.26
0.02,-0.76,1.25,25.04,-20.12,81.43
-0.07,-0.78,1.2,30.76,-23.95,75.38
-0.14,-0.78,1.14,36.6,-27.92,68.2
-0.17,-0.77,1.09,42.09,-32.25,60.07
-0.17,-0.77,1.09,42.09,-32.25,60.07
-0.16,-0.76,1.04,46.58,-36.91,51.28
-0.16,-0.73,0.99,49.9,-41.56,42.23
-0.16,-0.69,0.95,52.01,-45.69,33.04
-0.16,-0.65,0.93,52.8,-49.01,23.59
-0.16,-0.62,0.89,52.04,-51.23,13.98
-0.16,-0.62,0.89,52.04,-51.23,13.98
-0.17,-0.59,0.85,49.79,-52.13,4.45
-0.2,-0.57,0.82,46.31,-51.78,-4.8
-0.24,-0.54,0.8,41.96,-50.24,-13.76
-0.28,-0.5,0.77,37.07,-47.55,-22.42
-0.31,-0.46,0.76,31.68,-44.0,-30.65
-0.31,-0.46,0.76,31.68,-44.0,-30.65
-0.34,-0.43,0.75,25.69,-39.98,-38.26
-0.37,-0.4,0.76,19.17,-35.59,-45.21
-0.41,-0.37,0.77,12.37,-30.81,-51.61
-0.45,-0.34,0.77,5.63,-25.85,-57.6
-0.47,-0.3,0.76,-0.94,-21.06,-63.04
-0.47,-0.3,0.76,-0.94,-21.06,-63.04
-0.5,-0.25,0.77,-7.34,-16.97,-67.72
-0.5,-0.19,0.77,-13.66,-13.88,-71.65
-0.48,-0.13,0.77,-19.89,-11.69,-74.95
-0.44,-0.09,0.76,-25.7,-10.19,-77.5
-0.4,-0.03,0.75,-30.87,-9.27,-79.27
-0.4,-0.03,0.75,-30.87,-9.27,-79.27
-0.35,0.03,0.74,-35.2,-8.63,-80.39
-0.3,0.11,0.73,-38.6,-7.96,-80.92
-0.25,0.2,0.74,-41.14,-7.18,-80.85
-0.19,0.31,0.76,-42.97,-5.93,-80.27
-0.13,0.41,0.78,-44.26,-3.97,-79.24
-0.13,0.41,0.78,-44.26,-3.97,-79.24
-0.07,0.52,0.79,-45.09,-1.2,-77.75
-0.01,0.65,0.82,-45.54,2.3,-75.72
0.05,0.76,0.85,-45.68,6.24,-72.79
0.09,0.86,0.89,-45.7,10.42,-68.46
0.12,0.93,0.93,-45.75,14.78,-62.37
0.12,0.93,0.93,-45.75,14.78,-62.37
0.12,0.96,0.97,-45.86,19.44,-54.49
0.1,0.95,1.01,-45.79,24.32,-44.98
0.06,0.9,1.03,-44.91,29.05,-34.15
0.02,0.86,1.06,-42.58,33.14,-22.36
-0.01,0.85,1.09,-38.38,36.0,-10.16
-0.01,0.85,1.09,-38.38,36.0,-10.16
-0.01,0.86,1.13,-32.6,37.57,1.69
0.02,0.87,1.2,-26.07,38.12,12.7
0.05,0.87,1.26,-19.62,37.9,22.83
0.09,0.85,1.32,-13.89,36.99,32.19
0.12,0.81,1.36,-9.2,35.42,40.93
0.12,0.81,1.36,-9.2,35.42,40.93
0.15,0.73,1.4,-5.65,33.35,49.2
0.16,0.62,1.42,-3.16,30.82,57.06
0.15,0.5,1.42,-1.34,27.84,64.32
0.14,0.37,1.41,0.32,24.37,70.86
0.13,0.24,1.4,2.19,20.46,76.51
0.13,0.24,1.4,2.19,20.46,76.51
0.13,0.13,1.4,4.53,16.13,81.22
0.14,0.02,1.38,7.44,11.51,84.95
0.14,-0.07,1.38,10.8,6.79,87.62
0.14,-0.17,1.38,14.49,2.21,89.06
0.13,-0.27,1.37,18.51,-1.94,89.21
0.13,-0.27,1.37,18.51,-1.94,89.21
0.09,-0.36,1.37,22.82,-5.54,88.18
0.04,-0.44,1.36,27.33,-8.67,86.04
-0.01,-0.49,1.34,31.82,-11.6,82.81
-0.07,-0.53,1.3,36.11,-14.65,78.43
-0.12,-0.57,1.25,40.12,-18.2,73.0
-0.12,-0.57,1.25,40.12,-18.2,73.0
-0.15,-0.59,1.19,43.67,-22.44,66.79
-0.17,-0.61,1.14,46.67,-27.38,59.95
-0.18,-0.63,1.08,49.01,-32.8,52.67
-0.18,-0.64,1.01,50.62,-38.41,45.13
-0.17,-0.64,0.95,51.57,-43.91,37.4
-0.17,-0.64,0.95,51.57,-43.91,37.4
-0.16,-0.65,0.9,51.93,-48.9,29.46
-0.15,-0.63,0.87,51.68,-52.89,21.38
-0.17,-0.6,0.83,50.67,-55.65,13.04
-0.19,-0.56,0.82,48.68,-56.93,4.41
-0.21,-0.52,0.82,45.54,-56.6,-4.55
-0.21,-0.52,0.82,45.54,-56.6,-4.55
-0.23,-0.49,0.82,41.03,-54.53,-13.66
-0.26,-0.47,0.81,35.11,-50.83,-22.61
-0.31,-0.46,0.79,28.08,-45.81,-31.14
-0.39,-0.45,0.77,20.5,-39.89,-39.29
-0.46,-0.42,0.74,13.0,-33.74,-47.18
-0.46,-0.42,0.74,13.0,-33.74,-47.18
-0.51,-0.38,0.72,6.11,-27.86,-54.73
-0.54,-0.32,0.73,0.01,-22.57,-61.81
-0.53,-0.25,0.74,-5.57,-18.12,-68.32
-0.5,-0.17,0.75,-11.04,-14.53,-74.07
-0.48,-0.09,0.74,-16.59,-11.54,-78.9
-0.48,-0.09,0.74,-16.59,-11.54,-78.9
-0.45,-0.02,0.72,-22.19,-8.96,-82.7
-0.43,0.05,0.69,-27.66,-6.92,-85.23
-0.4,0.13,0.67,-32.76,-5.42,-86.37
-0.36,0.21,0.66,-37.3,-4.2,-86.18
-0.31,0.31,0.66,-41.16,-3.04,-84.87
-0.31,0.31,0.66,-41.16,-3.04,-84.87
-0.26,0.4,0.68,-44.27,-1.53,-82.78
-0.18,0.5,0.7,-46.63,0.67,-80.06
-0.12,0.61,0.74,-48.31,3.69,-76.54
-0.07,0.72,0.77,-49.54,7.65,-72.07
-0.04,0.82,0.8,-50.58,12.31,-66.53
-0.04,0.82,0.8,-50.58,12.31,-66.53
-0.02,0.9,0.83,-51.53,17.35,-59.76
-0.02,0.96,0.85,-52.3,22.41,-51.67
-0.0,0.98,0.89,-52.73,27.2,-42.17
0.01,0.96,0.93,-52.72,31.45,-31.19
0.01,0.94,0.97,-51.89,35.03,-19.05
0.01,0.94,0.97,-51.89,35.03,-19.05
0.01,0.92,1.0,-49.82,37.86,-6.45
0.04,0.92,1.05,-46.29,39.85,6.0
0.09,0.91,1.11,-41.58,41.12,17.86
0.14,0.9,1.19,-36.27,42.03,28.94
0.18,0.86,1.27,-31.1,42.83,39.31
0.18,0.86,1.27,-31.1,42.83,39.31
0.19,0.79,1.34,-26.55,43.53,49.11
0.17,0.69,1.38,-22.73,43.98,58.45
0.14,0.57,1.41,-19.46,43.73,67.2
0.12,0.44,1.44,-16.35,42.24,75.13
0.1,0.3,1.48,-13.04,39.35,82.03
0.1,0.3,1.48,-13.04,39.35,82.03
0.1,0.17,1.5,-9.38,35.1,87.76
0.11,0.06,1.51,-5.38,29.69,92.18
0.12,-0.05,1.52,-1.23,23.43,95.19
0.15,-0.16,1.52,2.98,16.68,96.78
0.17,-0.26,1.5,7.18,9.64,97.11
0.17,-0.26,1.5,7.18,9.64,97.11
0.18,-0.35,1.48,11.29,2.5,96.21
0.18,-0.42,1.46,15.4,-4.45,94.13
0.15,-0.48,1.44,19.47,-11.0,90.74
0.1,-0.52,1.42,23.34,-16.88,85.95
0.05,-0.55,1.39,26.84,-21.97,79.94
0.05,-0.55,1.39,26.84,-21.97,79.94
0.02,-0.58,1.34,29.85,-26.44,72.98
-0.02,-0.6,1.3,32.25,-30.45,65.38
-0.06,-0.63,1.24,34.09,-34.02,57.53
-0.1,-0.66,1.17,35.5,-37.22,49.6
-0.16,-0.68,1.09,36.68,-40.2,41.6
-0.16,-0.68,1.09,36.68,-40.2,41.6
-0.2,-0.69,1.02,37.82,-43.1,33.48
-0.23,-0.69,0.96,39.11,-45.95,25.27
-0.24,-0.68,0.9,40.54,-48.64,17.06
-0.24,-0.64,0.86,41.93,-50.94,8.81
-0.24,-0.59,0.84,42.91,-52.34,0.57
-0.24,-0.59,0.84,42.91,-52.34,0.57
-0.23,-0.54,0.83,43.01,-52.6,-7.52
-0.24,-0.49,0.81,41.68,-51.71,-15.45
-0.26,-0.46,0.8,38.75,-49.55,-23.22
-0.31,-0.44,0.79,34.25,-46.1,-30.74
-0.36,-0.43,0.78,28.38,-41.6,-37.97
-0.36,-0.43,0.78,28.38,-41.6,-37.97
-0.42,-0.43,0.76,21.59,-36.42,-44.93
-0.48,-0.42,0.74,14.42,-30.9,-51.84
-0.53,-0.39,0.73,7.3,-25.46,-58.79
-0.56,-0.36,0.71,0.55,-20.5,-65.74
-0.55,-0.32,0.7,-5.7,-16.38,-72.36
-0.55,-0.32,0.7,-5.7,-16.38,-72.36
-0.53,-0.26,0.69,-11.52,-13.27,-78.21
-0.5,-0.2,0.67,-17.02,-11.15,-83.06
-0.46,-0.13,0.67,-22.16,-9.82,-86.92
-0.44,-0.06,0.65,-27.0,-8.94,-89.91
-0.42,0.03,0.62,-31.45,-8.39,-92.2
-0.42,0.03,0.62,-31.45,-8.39,-92.2
-0.39,0.14,0.6,-35.39,-8.03,-93.97
-0.33,0.25,0.6,-38.78,-7.58,-95.31
-0.26,0.39,0.62,-41.67,-6.84,-96.12
-0.17,0.53,0.65,-44.32,-5.65,-96.13
-0.07,0.66,0.69,-46.77,-3.78,-94.72
-0.07,0.66,0.69,-46.77,-3.78,-94.72
0.0,0.79,0.73,-49.33,-1.11,-91.36
0.06,0.91,0.77,-52.1,2.57,-86.18
0.1,1.0,0.81,-54.87,7.35,-79.46
0.13,1.05,0.85,-57.18,13.05,-71.44
0.14,1.06,0.9,-58.82,19.46,-62.14
0.14,1.06,0.9,-58.82,19.46,-62.14
0.13,1.04,0.96,-59.54,26.44,-51.38
0.08,1.03,1.01,-58.83,33.6,-39.38
0.03,1.02,1.04,-56.26,40.04,-26.6
0.01,1.04,1.08,-51.86,44.98,-13.44
0.03,1.06,1.14,-46.36,48.32,-0.22
0.03,1.06,1.14,-46.36,48.32,-0.22
0.06,1.05,1.21,-40.72,50.36,12.68
0.1,1.01,1.28,-35.63,51.46,24.82
0.11,0.92,1.33,-31.25,51.83,36.12
0.11,0.82,1.37,-27.55,51.32,46.68
0.11,0.71,1.4,-24.2,49.66,56.6
0.11,0.71,1.4,-24.2,49.66,56.6
0.12,0.6,1.43,-21.07,46.83,65.81
0.12,0.48,1.46,-18.2,43.17,74.13
0.12,0.34,1.49,-15.64,39.05,81.36
0.11,0.19,1.51,-13.21,34.65,87.41
0.09,0.04,1.52,-10.7,29.98,92.09
0.09,0.04,1.52,-10.7,29.98,92.09
0.08,-0.1,1.53,-7.85,25.12,95.28
0.06,-0.23,1.53,-4.48,20.15,97.04
0.04,-0.33,1.52,-0.56,15.17,97.3
0.0,-0.42,1.52,3.92,10.26,96.01
-0.04,-0.5,1.51,8.78,5.45,93.31
-0.04,-0.5,1.51,8.78,5.45,93.31
-0.09,-0.56,1.5,13.73,0.69,89.45
-0.15,-0.61,1.47,18.58,-4.25,84.7
-0.19,-0.66,1.42,23.16,-9.47,79.27
-0.21,-0.7,1.36,27.38,-15.1,73.29
-0.22,-0.73,1.29,31.32,-21.14,66.78
-0.22,-0.73,1.29,31.32,-21.14,66.78
-0.23,-0.74,1.22,35.08,-27.64,59.72
-0.23,-0.75,1.15,38.44,-34.41,52.17
-0.22,-0.73,1.06,41.26,-41.21,44.2
-0.2,-0.7,0.99,43.48,-47.86,35.8
-0.18,-0.66,0.93,44.98,-54.01,27.1
-0.18,-0.66,0.93,44.98,-54.01,27.1
-0.15,-0.61,0.9,45.44,-59.17,18.39
-0.13,-0.57,0.86,44.42,-63.09,9.89
-0.13,-0.54,0.83,41.63,-65.6,1.62
-0.14,-0.53,0.8,37.14,-66.4,-6.47
-0.17,-0.53,0.77,31.38,-65.35,-14.38
-0.17,-0.53,0.77,31.38,-65.35,-14.38
-0.22,-0.53,0.73,24.78,-62.45,-22.08
-0.27,-0.53,0.69,17.9,-58.03,-29.67
-0.32,-0.52,0.67,11.23,-52.76,-37.16
-0.35,-0.51,0.66,4.99,-47.02,-44.5
-0.38,-0.47,0.67,-0.6,-41.01,-51.61
-0.38,-0.47,0.67,-0.6,-41.01,-51.61
-0.4,-0.41,0.69,-5.53,-35.03,-58.5
-0.42,-0.33,0.7,-10.02,-29.37,-65.15
-0.42,-0.25,0.71,-14.42,-24.32,-71.21
-0.41,-0.17,0.71,-18.99,-20.09,-76.52
-0.39,-0.11,0.71,-23.86,-16.59,-81.04
-0.39,-0.11,0.71,-23.86,-16.59,-81.04
-0.36,-0.06,0.69,-28.74,-13.66,-84.64
-0.34,0.01,0.69,-33.18,-11.14,-87.24
-0.31,0.09,0.68,-36.97,-8.89,-89.07
-0.29,0.2,0.69,-40.06,-6.61,-90.42
-0.25,0.31,0.72,-42.4,-4.08,-91.45
-0.25,0.31,0.72,-42.4,-4.08,-91.45
-0.21,0.43,0.75,-44.09,-1.16,-92.19
-0.18,0.56,0.78,-45.43,2.1,-92.4
-0.15,0.69,0.83,-46.69,5.6,-91.95
-0.14,0.81,0.87,-47.97,9.36,-90.94
-0.12,0.91,0.92,-49.38,13.19,-89.15
-0.12,0.91,0.92,-49.38,13.19,-89.15
-0.1,0.98,0.96,-51.08,16.85,-86.21
-0.09,1.03,0.98,-52.91,20.22,-81.9
-0.08,1.06,1.0,-54.58,23.13,-76.15
-0.05,1.06,1.02,-55.71,25.44,-68.87
-0.01,1.05,1.05,-55.89,27.05,-59.9
-0.01,1.05,1.05,-55.89,27.05,-59.9
0.04,1.03,1.08,-54.97,28.06,-49.27
0.08,1.0,1.11,-52.85,28.73,-37.23
0.12,0.96,1.14,-49.53,29.27,-24.08
0.16,0.91,1.19,-45.1,29.73,-10.16
0.21,0.83,1.24,-39.69,30.2,4.33
0.21,0.83,1.24,-39.69,30.2,4.33
0.24,0.74,1.29,-33.5,30.82,19.3
0.25,0.63,1.33,-26.92,31.8,34.32
0.24,0.52,1.37,-20.18,33.03,48.86
0.21,0.4,1.4,-13.37,34.16,62.46
0.17,0.27,1.42,-6.55,35.07,74.52
0.17,0.27,1.42,-6.55,35.07,74.52
0.14,0.13,1.45,0.35,35.49,84.57
0.1,0.0,1.48,7.21,35.13,92.3
0.06,-0.1,1.51,13.97,33.78,97.55
-0.0,-0.18,1.52,20.44,31.11,100.44
-0.05,-0.25,1.54,26.3,27.07,101.03
-0.05,-0.25,1.54,26.3,27.07,101.03
-0.1,-0.3,1.55,31.22,21.58,99.59
-0.14,-0.36,1.55,34.91,14.75,96.5
-0.17,-0.41,1.54,37.17,6.65,92.11
-0.2,-0.46,1.5,38.01,-2.46,86.68
-0.2,-0.53,1.43,37.67,-12.4,80.53
-0.2,-0.53,1.43,37.67,-12.4,80.53
-0.19,-0.61,1.35,36.56,-22.76,73.93
-0.17,-0.69,1.26,35.11,-33.02,67.05
-0.14,-0.77,1.16,33.69,-42.7,59.97
-0.12,-0.82,1.07,32.73,-51.41,52.58
-0.09,-0.86,0.96,32.48,-58.68,44.78
-0.09,-0.86,0.96,32.48,-58.68,44.78
-0.05,-0.87,0.84,33.34,-64.32,36.92
-0.04,-0.86,0.77,35.59,-68.31,29.18
-0.02,-0.83,0.7,38.71,-70.78,21.68
-0.03,-0.78,0.66,42.32,-71.69,14.56
-0.03,-0.78,0.66,46.08,-70.89,7.79
-0.06,-0.7,0.67,46.08,-70.89,7.79
-0.1,-0.62,0.68,48.97,-68.28,1.1
-0.15,-0.53,0.69,50.06,-64.25,-5.71
-0.19,-0.47,0.7,48.95,-59.2,-12.67
-0.22,-0.42,0.71,45.56,-53.4,-19.73
-0.22,-0.42,0.71,40.11,-47.12,-26.86
-0.25,-0.38,0.71,40.11,-47.12,-26.86
-0.28,-0.34,0.71,33.05,-40.66,-33.8
-0.32,-0.31,0.71,24.79,-34.2,-40.43
-0.34,-0.28,0.69,15.82,-28.08,-46.83
-0.35,-0.26,0.67,6.8,-22.66,-52.77
-0.35,-0.26,0.67,6.8,-22.66,-52.77
-0.35,-0.23,0.68,-1.67,-18.04,-57.9
-0.37,-0.18,0.68,-9.34,-14.23,-62.15
-0.38,-0.11,0.68,-16.22,-11.01,-65.68
-0.39,-0.03,0.68,-22.23,-8.3,-68.65
-0.38,0.06,0.68,-27.32,-6.01,-71.02
-0.38,0.06,0.68,-27.32,-6.01,-71.02
-0.37,0.15,0.7,-31.62,-3.97,-72.78
-0.33,0.25,0.71,-35.47,-1.94,-73.85
-0.28,0.34,0.72,-39.03,0.31,-74.11
-0.23,0.42,0.73,-42.27,2.94,-73.37
-0.19,0.5,0.73,-45.13,5.93,-71.53
-0.19,0.5,0.73,-45.13,5.93,-71.53
-0.16,0.57,0.75,-47.44,9.19,-68.51
-0.14,0.64,0.78,-49.11,12.7,-64.23
-0.13,0.69,0.79,-50.2,16.41,-58.84
-0.11,0.74,0.81,-50.57,20.14,-52.35
-0.08,0.77,0.84,-50.08,23.8,-44.76
-0.08,0.77,0.84,-50.08,23.8,-44.76
-0.05,0.79,0.87,-48.6,27.31,-36.1
-0.02,0.83,0.89,-46.14,30.49,-26.54
0.0,0.87,0.93,-42.71,33.28,-16.6
0.06,0.9,0.98,-38.35,35.79,-6.81
0.12,0.93,1.05,-33.34,38.29,2.6
0.12,0.93,1.05,-33.34,38.29,2.6
0.16,0.96,1.13,-28.18,41.02,11.78
0.18,0.98,1.2,-23.39,44.1,20.78
0.19,0.97,1.28,-19.32,47.53,29.74
0.18,0.92,1.35,-16.19,51.07,38.82
0.16,0.83,1.4,-13.89,54.28,48.05
0.16,0.83,1.4,-13.89,54.28,48.05
0.12,0.72,1.44,-11.91,56.6,57.41
0.08,0.61,1.47,-9.79,57.58,66.54
0.05,0.49,1.5,-7.24,56.87,75.03
0.05,0.37,1.54,-4.07,54.34,82.69
0.05,0.26,1.57,-0.34,50.21,89.48
0.05,0.26,1.57,-0.34,50.21,89.48
0.05,0.16,1.6,3.66,44.72,95.23
0.05,0.05,1.62,7.78,38.08,99.81
0.03,-0.05,1.62,11.86,30.56,102.96
0.02,-0.13,1.61,15.86,22.38,104.45
0.01,-0.2,1.59,19.73,13.76,104.15
0.01,-0.2,1.59,19.73,13.76,104.15
-0.0,-0.25,1.58,23.37,5.01,102.09
-0.02,-0.3,1.57,26.58,-3.52,98.41
-0.04,-0.34,1.55,29.08,-11.53,93.51
-0.06,-0.39,1.51,30.71,-18.84,87.81
-0.09,-0.43,1.44,31.47,-25.4,81.54
-0.09,-0.43,1.44,31.47,-25.4,81.54
-0.12,-0.49,1.36,31.62,-31.38,74.93
-0.15,-0.54,1.28,31.51,-36.94,68.07
-0.16,-0.59,1.19,31.43,-42.22,61.13
-0.18,-0.64,1.1,31.47,-47.24,54.31
-0.18,-0.68,1.01,31.72,-52.03,47.61
-0.18,-0.68,1.01,31.72,-52.03,47.61
-0.18,-0.7,0.92,32.39,-56.37,40.91
-0.17,-0.7,0.83,33.66,-60.14,34.19
-0.16,-0.69,0.78,35.59,-63.18,27.49
-0.15,-0.66,0.76,37.75,-65.22,20.85
-0.14,-0.61,0.75,39.44,-66.15,14.33
-0.14,-0.61,0.75,39.44,-66.15,14.33
-0.16,-0.57,0.75,40.13,-65.67,7.87
-0.19,-0.52,0.76,39.45,-63.42,1.2
-0.25,-0.48,0.76,37.07,-59.4,-5.79
-0.31,-0.45,0.75,32.99,-53.94,-13.03
-0.36,-0.41,0.75,27.44,-47.48,-20.41
-0.36,-0.41,0.75,27.44,-47.48,-20.41
-0.4,-0.39,0.75,20.66,-40.51,-27.86
-0.45,-0.36,0.76,13.03,-33.34,-35.23
-0.49,-0.34,0.75,4.99,-26.26,-42.49
-0.5,-0.31,0.72,-2.9,-19.74,-49.61
-0.5,-0.27,0.71,-10.11,-14.4,-56.25
-0.5,-0.27,0.71,-10.11,-14.4,-56.25
-0.49,-0.21,0.72,-16.48,-10.56,-62.03
-0.49,-0.14,0.72,-22.1,-8.07,-66.79
-0.5,-0.07,0.71,-27.07,-6.66,-70.63
-0.5,0.02,0.7,-31.51,-6.04,-73.83
-0.49,0.11,0.7,-35.33,-5.91,-76.59
-0.49,0.11,0.7,-35.33,-5.91,-76.59
-0.48,0.22,0.7,-38.56,-5.9,-79.04
-0.43,0.34,0.7,-41.41,-6.03,-81.13
-0.36,0.48,0.7,-44.19,-6.39,-82.54
-0.27,0.61,0.72,-47.05,-6.89,-82.78
-0.18,0.72,0.74,-50.14,-7.24,-81.35
-0.18,0.72,0.74,-50.14,-7.24,-81.35
-0.11,0.8,0.78,-53.68,-6.81,-77.96
-0.07,0.85,0.78,-57.71,-5.0,-72.79
-0.03,0.87,0.77,-61.76,-1.8,-66.2
0.01,0.85,0.77,-64.91,2.5,-58.46
0.04,0.85,0.79,-66.07,7.54,-49.53
0.04,0.85,0.79,-66.07,7.54,-49.53
0.05,0.87,0.81,-64.75,12.69,-39.57
0.08,0.91,0.85,-61.09,17.47,-28.85
0.13,0.97,0.9,-55.65,21.67,-17.64
0.18,1.02,0.99,-49.19,25.43,-6.18
0.22,1.05,1.09,-42.77,29.14,5.39
0.22,1.05,1.09,-42.77,29.14,5.39
0.24,1.04,1.16,-37.24,33.3,16.87
0.24,0.97,1.23,-33.08,37.84,28.1
0.22,0.86,1.28,-30.2,42.47,39.06
0.2,0.72,1.32,-27.83,46.63,49.71
0.2,0.56,1.38,-25.17,49.75,59.93
0.2,0.56,1.38,-25.17,49.75,59.93
0.22,0.41,1.42,-21.8,51.62,69.6
0.23,0.27,1.47,-17.71,52.46,78.44
0.23,0.14,1.5,-12.87,52.34,86.0
0.21,0.03,1.51,-7.15,51.08,91.95
0.19,-0.07,1.53,-0.53,48.41,96.19
0.19,-0.07,1.53,-0.53,48.41,96.19
0.18,-0.14,1.56,6.67,44.19,98.76
0.15,-0.21,1.58,13.88,38.59,99.79
0.1,-0.26,1.59,20.6,31.78,99.36
0.05,-0.3,1.6,26.41,23.94,97.54
-0.01,-0.33,1.6,31.04,15.23,94.27
-0.01,-0.33,1.6,31.04,15.23,94.27
-0.08,-0.34,1.59,34.25,5.86,89.55
-0.15,-0.35,1.56,35.79,-4.02,83.43
-0.18,-0.38,1.51,35.51,-14.26,76.03
-0.18,-0.43,1.43,33.57,-24.51,67.88
-0.16,-0.5,1.34,30.41,-34.47,59.53
-0.16,-0.5,1.34,30.41,-34.47,59.53
-0.15,-0.57,1.23,26.65,-43.87,51.23
-0.13,-0.64,1.13,22.93,-52.43,43.04
-0.13,-0.7,1.02,19.76,-59.91,34.9
-0.11,-0.75,0.91,17.6,-66.02,26.75
-0.09,-0.78,0.81,16.91,-70.7,18.94
-0.09,-0.78,0.81,16.91,-70.7,18.94
-0.08,-0.78,0.74,17.89,-73.74,11.76
-0.07,-0.76,0.68,20.21,-75.09,5.09
-0.08,-0.7,0.64,23.61,-74.87,-1.15
-0.11,-0.64,0.65,27.52,-73.18,-6.92
-0.16,-0.57,0.67,30.99,-70.04,-12.41
-0.16,-0.57,0.67,30.99,-70.04,-12.41
-0.22,-0.5,0.69,33.21,-65.73,-17.7
-0.28,-0.44,0.71,33.69,-60.55,-23.08
-0.32,-0.39,0.72,32.18,-54.64,-28.73
-0.35,-0.36,0.73,28.56,-48.22,-34.42
-0.37,-0.33,0.73,22.97,-41.56,-39.95
-0.37,-0.33,0.73,22.97,-41.56,-39.95
-0.4,-0.32,0.72,15.88,-34.85,-45.3
-0.41,-0.32,0.7,8.12,-28.34,-50.56
-0.42,-0.31,0.67,0.47,-22.36,-55.71
-0.42,-0.28,0.67,-6.59,-17.19,-60.68
-0.41,-0.24,0.65,-12.77,-12.95,-65.35
-0.41,-0.24,0.65,-12.77,-12.95,-65.35
-0.4,-0.18,0.64,-18.02,-9.65,-69.6
-0.38,-0.12,0.64,-22.41,-7.19,-73.27
-0.35,-0.06,0.65,-26.1,-5.32,-76.13
-0.33,0.0,0.65,-29.38,-3.75,-78.07
-0.31,0.06,0.66,-32.47,-2.18,-79.1
-0.31,0.06,0.66,-32.47,-2.18,-79.1
-0.3,0.12,0.65,-35.3,-0.27,-79.42
-0.28,0.19,0.65,-37.63,2.24,-79.44
-0.25,0.28,0.67,-39.24,5.3,-79.28
-0.23,0.37,0.71,-40.17,8.81,-78.82
-0.2,0.46,0.75,-40.79,12.65,-77.83
-0.2,0.46,0.75,-40.79,12.65,-77.83
-0.16,0.55,0.79,-41.51,16.72,-75.89
-0.12,0.61,0.82,-42.39,20.94,-72.85
