ax,ay,az,gx,gy,gz
0.11,0.06,0.94,8.83,6.25,0.51
0.08,0.15,0.86,10.25,6.24,-0.41
0.11,0.31,0.9,12.06,6.08,-1.98
0.19,0.4,1.01,13.36,5.79,-3.67
0.25,0.43,1.12,11.71,5.91,-4.47
0.25,0.43,1.12,11.71,5.91,-4.47
0.29,0.37,1.19,5.63,7.57,-3.79
0.24,0.19,1.17,-4.4,11.49,-1.57
0.11,-0.01,1.11,-15.61,17.03,1.45
-0.02,-0.17,1.06,-24.54,22.52,4.1
-0.07,-0.27,1.03,-29.4,27.26,5.49
-0.07,-0.27,1.03,-29.4,27.26,5.49
-0.08,-0.3,1.03,-30.08,31.29,6.05
-0.12,-0.27,1.08,-27.16,34.4,6.28
-0.17,-0.22,1.12,-22.29,36.34,5.46
-0.2,-0.17,1.12,-16.68,36.68,3.42
-0.22,-0.13,1.12,-10.66,35.53,0.6
-0.22,-0.13,1.12,-10.66,35.53,0.6
-0.22,-0.09,1.15,-4.41,33.02,-2.75
-0.22,-0.01,1.19,1.49,29.71,-6.18
-0.21,0.09,1.21,5.87,26.01,-9.43
-0.19,0.18,1.22,7.99,22.24,-12.76
-0.14,0.2,1.22,7.78,18.77,-16.02
-0.14,0.2,1.22,7.78,18.77,-16.02
-0.11,0.22,1.21,5.38,15.69,-18.63
-0.1,0.2,1.18,1.16,13.14,-20.68
-0.09,0.15,1.12,-3.84,10.98,-22.37
-0.09,0.07,1.05,-8.39,8.99,-23.84
-0.09,0.0,0.99,-11.35,7.15,-24.97
-0.09,0.0,0.99,-11.35,7.15,-24.97
-0.09,-0.03,0.95,-12.11,5.36,-25.74
-0.08,-0.04,0.93,-10.72,3.51,-26.19
-0.07,-0.01,0.93,-7.66,1.59,-26.31
-0.06,0.03,0.92,-3.59,-0.37,-26.16
-0.05,0.08,0.92,0.96,-2.28,-25.77
-0.05,0.08,0.92,0.96,-2.28,-25.77
-0.05,0.12,0.92,5.45,-4.05,-25.25
-0.05,0.17,0.93,9.38,-5.62,-24.65
-0.05,0.21,0.93,12.44,-6.98,-24.09
-0.05,0.23,0.93,14.31,-8.15,-23.66
-0.04,0.25,0.94,14.81,-9.1,-23.36
-0.04,0.25,0.94,14.81,-9.1,-23.36
-0.03,0.24,0.94,13.98,-9.75,-23.17
-0.03,0.23,0.93,11.95,-10.1,-22.96
-0.03,0.21,0.92,9.05,-10.1,-22.72
-0.04,0.19,0.91,5.7,-9.77,-22.39
-0.05,0.18,0.9,2.33,-9.23,-21.94
-0.05,0.18,0.9,2.33,-9.23,-21.94
-0.06,0.16,0.89,-0.84,-8.62,-21.4
-0.05,0.14,0.88,-3.62,-8.09,-20.79
-0.05,0.12,0.87,-5.71,-7.76,-20.05
-0.03,0.1,0.86,-6.82,-7.72,-19.01
-0.02,0.1,0.87,-7.0,-7.82,-17.6
-0.02,0.1,0.87,-7.0,-7.82,-17.6
-0.02,0.1,0.87,-6.43,-7.95,-15.93
-0.02,0.09,0.87,-5.26,-8.06,-14.2
-0.01,0.1,0.88,-3.56,-8.03,-12.55
-0.01,0.11,0.91,-1.47,-7.75,-11.07
-0.01,0.11,0.91,0.63,-7.11,-9.81
-0.02,0.14,0.93,0.63,-7.11,-9.81
-0.03,0.16,0.95,2.32,-6.13,-8.75
-0.04,0.17,0.96,3.31,-4.92,-7.91
-0.06,0.18,0.98,3.61,-3.5,-7.25
-0.08,0.19,0.99,3.39,-1.87,-6.78
-0.08,0.19,0.99,2.37,-0.19,-6.52
-0.09,0.19,1.0,2.37,-0.19,-6.52
-0.11,0.19,1.0,0.64,1.31,-6.36
-0.12,0.17,0.99,-1.38,2.45,-6.13
-0.14,0.17,0.99,-3.08,3.09,-5.94
-0.13,0.16,0.99,-4.9,2.97,-6.08
-0.13,0.16,0.99,-4.9,2.97,-6.08
-0.12,0.15,0.98,-6.54,2.28,-5.82
-0.12,0.14,0.98,-7.82,1.16,-5.21
-0.1,0.12,0.97,-8.68,-0.38,-4.78
-0.07,0.12,0.98,-9.08,-1.99,-4.37
-0.06,0.11,0.98,-9.37,-3.42,-3.85
-0.06,0.11,0.98,-9.37,-3.42,-3.85
-0.05,0.11,0.98,-9.54,-4.62,-3.27
-0.04,0.1,0.98,-9.54,-5.45,-2.7
-0.02,0.08,0.98,-9.42,-5.89,-2.09
-0.03,0.07,0.98,-9.29,-5.92,-1.41
-0.05,0.05,0.97,-9.07,-5.63,-0.83
-0.05,0.05,0.97,-9.07,-5.63,-0.83
-0.05,0.04,0.96,-8.58,-5.07,-0.61
-0.04,0.04,0.97,-7.78,-4.47,-0.61
-0.05,0.06,0.99,-6.91,-3.82,-0.67
-0.06,0.08,0.99,-6.3,-3.3,-0.8
-0.06,0.09,0.99,-6.1,-2.99,-1.0
-0.06,0.09,0.99,-6.1,-2.99,-1.0
-0.07,0.09,0.99,-6.22,-2.93,-1.22
-0.07,0.09,0.99,-6.54,-3.06,-1.43
-0.07,0.09,0.99,-6.97,-3.35,-1.65
-0.07,0.09,0.99,-7.49,-3.8,-1.87
-0.07,0.1,0.98,-8.12,-4.39,-2.04
-0.07,0.1,0.98,-8.12,-4.39,-2.04
-0.07,0.1,0.98,-8.74,-5.08,-2.12
-0.07,0.1,0.99,-9.35,-5.81,-2.0
-0.08,0.1,0.99,-9.87,-6.5,-1.66
-0.1,0.11,0.99,-10.27,-7.17,-1.08
-0.11,0.12,0.99,-10.58,-7.83,-0.42
-0.11,0.12,0.99,-10.58,-7.83,-0.42
-0.11,0.12,1.0,-10.8,-8.51,0.13
-0.12,0.14,1.01,-10.98,-9.06,0.78
-0.12,0.17,1.0,-11.32,-9.43,1.55
-0.11,0.19,0.99,-11.79,-9.76,2.26
-0.1,0.23,1.0,-12.09,-10.1,2.75
-0.1,0.23,1.0,-12.09,-10.1,2.75
-0.08,0.27,1.02,-12.39,-10.33,3.09
-0.07,0.3,1.05,-12.72,-10.13,3.83
-0.07,0.32,1.05,-13.69,-9.84,4.94
-0.07,0.32,1.02,-15.03,-9.66,6.35
-0.09,0.3,0.99,-15.92,-9.68,8.47
-0.09,0.3,0.99,-15.92,-9.68,8.47
-0.1,0.31,0.97,-16.21,-10.32,11.48
-0.1,0.32,0.97,-15.97,-11.68,15.05
-0.07,0.33,0.95,-15.17,-13.64,19.09
-0.04,0.34,0.93,-13.79,-16.05,23.4
0.01,0.35,0.93,-11.83,-18.69,27.86
0.01,0.35,0.93,-11.83,-18.69,27.86
0.06,0.36,0.92,-9.47,-21.38,32.44
0.11,0.38,0.92,-6.74,-23.82,37.3
0.15,0.4,0.93,-3.86,-25.68,42.29
0.18,0.39,0.94,-1.29,-26.81,47.62
0.19,0.39,0.94,0.44,-27.22,53.49
0.19,0.39,0.94,0.44,-27.22,53.49
0.19,0.35,0.93,1.14,-26.98,59.26
0.2,0.28,0.92,1.33,-25.9,64.65
0.22,0.19,0.92,1.53,-24.06,69.98
0.23,0.12,0.93,1.96,-21.45,75.3
0.21,0.05,0.95,2.78,-18.02,80.46
0.21,0.05,0.95,2.78,-18.02,80.46
0.14,-0.02,0.96,4.27,-13.82,85.1
0.07,-0.1,0.99,6.43,-9.33,88.46
0.02,-0.16,1.02,9.15,-5.01,90.2
-0.01,-0.2,1.06,12.33,-1.24,90.47
-0.04,-0.22,1.11,15.72,1.6,89.56
-0.04,-0.22,1.11,15.72,1.6,89.56
-0.1,-0.23,1.16,18.93,3.13,87.51
-0.18,-0.24,1.19,21.21,2.81,84.29
-0.24,-0.27,1.2,22.29,0.26,79.79
-0.24,-0.3,1.22,22.23,-4.51,74.15
-0.19,-0.32,1.24,20.89,-10.95,67.81
-0.19,-0.32,1.24,20.89,-10.95,67.81
-0.13,-0.33,1.25,18.17,-18.53,61.42
-0.09,-0.37,1.28,14.21,-26.64,55.27
-0.05,-0.43,1.26,8.83,-34.68,49.18
-0.03,-0.5,1.21,2.3,-42.08,42.83
0.0,-0.59,1.14,-4.38,-48.43,36.15
0.0,-0.59,1.14,-4.38,-48.43,36.15
0.02,-0.66,1.07,-10.08,-53.39,29.16
0.04,-0.71,1.01,-14.37,-57.03,21.53
0.07,-0.77,0.96,-16.66,-59.35,13.13
0.1,-0.79,0.92,-16.87,-60.18,4.44
0.12,-0.8,0.89,-15.37,-59.91,-4.31
0.12,-0.8,0.89,-15.37,-59.91,-4.31
0.11,-0.8,0.87,-12.25,-58.5,-12.81
0.06,-0.75,0.84,-7.94,-56.28,-21.37
0.01,-0.68,0.81,-2.73,-53.69,-30.43
-0.02,-0.6,0.81,2.97,-51.03,-39.97
-0.05,-0.5,0.84,8.27,-48.53,-49.87
-0.05,-0.5,0.84,8.27,-48.53,-49.87
-0.1,-0.39,0.87,12.52,-46.22,-59.94
-0.16,-0.28,0.88,15.17,-44.09,-70.41
-0.21,-0.17,0.89,15.98,-42.41,-81.26
-0.24,-0.05,0.91,14.85,-41.3,-92.03
-0.26,0.08,0.95,11.41,-40.83,-102.5
-0.26,0.08,0.95,11.41,-40.83,-102.5
-0.29,0.21,0.98,5.49,-40.77,-112.13
-0.31,0.31,0.99,-3.25,-40.85,-120.59
-0.32,0.36,0.96,-14.67,-40.93,-127.8
-0.31,0.36,0.92,-27.97,-40.94,-133.33
-0.32,0.33,0.88,-42.06,-40.88,-136.62
-0.32,0.33,0.88,-42.06,-40.88,-136.62
-0.32,0.26,0.83,-55.84,-40.68,-137.74
-0.31,0.17,0.76,-67.68,-40.29,-137.06
-0.29,0.09,0.72,-76.26,-39.46,-134.84
-0.28,0.05,0.7,-80.96,-37.84,-131.23
-0.29,0.04,0.69,-81.94,-35.24,-126.65
-0.29,0.04,0.69,-81.94,-35.24,-126.65
-0.3,0.05,0.65,-79.44,-31.7,-121.64
-0.27,0.14,0.62,-73.71,-27.39,-116.66
-0.22,0.27,0.67,-65.29,-22.33,-111.84
-0.15,0.42,0.73,-55.6,-16.53,-107.18
-0.1,0.54,0.75,-46.23,-10.21,-102.34
-0.1,0.54,0.75,-46.23,-10.21,-102.34
-0.06,0.64,0.77,-38.12,-3.54,-96.8
-0.06,0.71,0.78,-31.77,3.43,-89.8
-0.09,0.77,0.79,-27.4,10.73,-81.11
-0.12,0.8,0.82,-24.98,18.32,-71.29
-0.13,0.83,0.84,-23.98,25.89,-61.03
-0.13,0.83,0.84,-23.98,25.89,-61.03
-0.1,0.86,0.87,-23.15,33.12,-50.52
-0.05,0.93,0.9,-21.47,39.58,-39.57
-0.0,1.0,0.93,-18.91,44.93,-28.07
0.06,1.07,0.95,-16.02,49.13,-16.27
0.14,1.1,1.0,-13.18,52.18,-4.46
0.14,1.1,1.0,-13.18,52.18,-4.46
0.22,1.12,1.03,-10.51,54.3,7.4
0.29,1.13,1.08,-7.77,55.68,19.32
0.33,1.11,1.14,-5.2,56.42,31.34
0.31,1.04,1.15,-3.67,57.0,43.48
0.24,0.96,1.14,-3.26,57.6,55.42
0.24,0.96,1.14,-3.26,57.6,55.42
0.19,0.86,1.15,-3.27,57.46,66.7
0.18,0.76,1.16,-3.46,56.33,77.46
0.16,0.66,1.17,-4.14,54.36,88.03
0.12,0.56,1.17,-5.53,51.76,98.18
0.09,0.44,1.16,-7.97,48.47,107.24
0.09,0.44,1.16,-7.97,48.47,107.24
0.11,0.31,1.14,-11.31,44.71,115.59
0.04,0.19,1.1,-14.77,40.56,124.33
0.1,-0.06,1.09,-16.08,35.77,130.22
0.14,-0.18,1.14,-15.26,32.06,135.21
0.12,-0.29,1.13,-14.52,28.2,141.07
0.12,-0.29,1.13,-14.52,28.2,141.07
0.04,-0.33,1.14,-11.91,24.33,147.24
0.02,-0.5,1.18,-9.19,20.09,149.44
0.1,-0.62,1.21,-5.76,15.46,148.24
0.17,-0.73,1.24,-2.05,11.2,146.24
0.18,-0.79,1.27,2.43,7.12,144.7
0.18,-0.79,1.27,2.43,7.12,144.7
0.14,-0.84,1.31,7.47,3.91,142.02
0.07,-0.89,1.31,12.4,1.38,136.07
0.02,-0.95,1.27,17.18,-0.9,127.25
-0.02,-0.99,1.27,21.86,-3.6,117.44
-0.06,-0.97,1.33,26.15,-7.0,107.15
-0.06,-0.97,1.33,26.15,-7.0,107.15
-0.06,-0.94,1.36,29.69,-10.27,95.62
-0.05,-0.93,1.39,31.98,-13.32,83.1
-0.1,-0.92,1.34,32.58,-16.41,70.26
-0.2,-0.91,1.24,31.37,-20.16,56.93
-0.25,-0.93,1.19,29.56,-24.59,43.46
-0.25,-0.93,1.19,29.56,-24.59,43.46
-0.27,-0.94,1.14,27.45,-29.4,30.74
-0.25,-0.91,1.08,25.28,-34.36,18.52
-0.21,-0.91,1.04,23.76,-38.9,6.28
-0.19,-0.9,1.01,23.16,-42.6,-5.71
-0.21,-0.86,0.95,23.44,-45.28,-17.05
-0.21,-0.86,0.95,23.44,-45.28,-17.05
-0.24,-0.81,0.89,24.76,-47.06,-27.74
-0.27,-0.74,0.83,27.15,-48.17,-37.97
-0.28,-0.63,0.81,30.24,-48.75,-47.93
-0.28,-0.52,0.8,33.26,-48.8,-57.77
-0.29,-0.39,0.82,35.37,-48.24,-67.44
-0.29,-0.39,0.82,35.37,-48.24,-67.44
-0.32,-0.27,0.83,35.97,-46.86,-76.87
-0.36,-0.16,0.82,34.75,-44.79,-86.04
-0.41,-0.07,0.79,31.45,-42.54,-94.86
-0.43,0.01,0.76,26.17,-40.72,-103.35
-0.41,0.08,0.76,19.45,-39.39,-111.0
-0.41,0.08,0.76,19.45,-39.39,-111.0
-0.39,0.16,0.73,11.57,-38.41,-117.23
-0.35,0.16,0.7,3.41,-37.84,-122.34
-0.31,0.18,0.67,-3.78,-36.94,-126.41
-0.29,0.23,0.62,-10.54,-35.88,-129.05
-0.27,0.27,0.6,-16.55,-35.17,-129.95
-0.27,0.27,0.6,-16.55,-35.17,-129.95
-0.24,0.32,0.59,-21.29,-34.6,-129.41
-0.23,0.37,0.59,-24.61,-33.82,-127.54
-0.22,0.45,0.58,-26.51,-32.63,-124.66
-0.18,0.55,0.57,-26.8,-31.05,-121.63
-0.08,0.64,0.59,-25.38,-29.04,-119.03
-0.08,0.64,0.59,-25.38,-29.04,-119.03
0.06,0.76,0.64,-22.85,-26.3,-116.22
0.16,0.86,0.67,-20.38,-22.24,-112.62
0.19,0.95,0.69,-18.33,-16.48,-108.07
0.18,0.99,0.71,-16.74,-9.07,-102.57
0.14,1.02,0.7,-15.88,-0.46,-95.51
0.14,1.02,0.7,-15.88,-0.46,-95.51
0.09,1.07,0.69,-15.84,7.95,-86.52
0.08,1.11,0.69,-16.45,15.03,-75.98
0.13,1.14,0.73,-17.11,20.33,-64.16
0.2,1.18,0.78,-17.43,23.95,-51.2
0.28,1.19,0.83,-17.29,26.41,-37.48
0.28,1.19,0.83,-17.29,26.41,-37.48
0.34,1.2,0.88,-16.95,28.48,-23.41
0.37,1.16,0.93,-16.94,30.64,-9.46
0.37,1.07,0.98,-17.43,33.24,4.12
0.33,0.98,1.03,-18.62,36.24,17.5
0.27,0.89,1.08,-20.4,39.4,30.36
0.27,0.89,1.08,-20.4,39.4,30.36
0.23,0.78,1.15,-22.15,42.17,42.09
0.17,0.66,1.19,-23.09,44.26,52.58
0.12,0.54,1.22,-22.69,45.6,61.99
0.08,0.44,1.29,-20.82,46.09,70.08
0.08,0.33,1.34,-18.17,45.51,76.81
0.08,0.33,1.34,-18.17,45.51,76.81
0.07,0.22,1.38,-15.34,43.74,82.26
0.11,0.11,1.42,-12.25,40.85,86.29
0.12,0.08,1.45,-9.86,37.17,89.7
0.1,-0.07,1.4,-8.23,31.98,92.36
0.13,-0.31,1.32,-3.93,26.04,93.1
0.13,-0.31,1.32,-3.93,26.04,93.1
0.09,-0.42,1.38,3.17,20.51,93.33
0.06,-0.46,1.4,10.12,14.34,92.96
0.03,-0.46,1.41,17.01,7.81,91.76
0.01,-0.52,1.43,22.3,0.83,88.73
0.01,-0.61,1.39,26.4,-6.49,84.1
0.01,-0.61,1.39,26.4,-6.49,84.1
-0.01,-0.69,1.37,30.12,-13.14,78.51
-0.04,-0.75,1.35,33.27,-18.85,71.46
-0.04,-0.78,1.31,36.04,-23.64,63.03
-0.07,-0.78,1.27,38.31,-27.5,53.67
-0.1,-0.78,1.23,39.94,-30.92,43.41
-0.1,-0.78,1.23,39.94,-30.92,43.41
-0.14,-0.77,1.18,40.97,-33.98,32.61
-0.17,-0.76,1.12,41.37,-36.89,21.71
-0.21,-0.75,1.05,41.29,-39.84,11.27
-0.25,-0.73,0.98,40.96,-42.74,1.58
-0.28,-0.69,0.92,41.02,-45.32,-7.59
-0.28,-0.69,0.92,41.02,-45.32,-7.59
-0.31,-0.64,0.89,41.58,-47.19,-16.64
-0.35,-0.55,0.89,42.18,-48.11,-25.48
-0.39,-0.46,0.88,42.14,-48.03,-34.14
-0.43,-0.38,0.86,40.81,-47.1,-42.84
-0.46,-0.32,0.84,38.02,-45.42,-51.27
-0.46,-0.32,0.84,38.02,-45.42,-51.27
-0.5,-0.26,0.82,33.76,-43.03,-59.05
-0.52,-0.2,0.79,28.11,-40.0,-66.33
-0.52,-0.15,0.75,21.5,-36.52,-73.11
-0.52,-0.11,0.73,14.34,-32.72,-79.09
-0.52,-0.06,0.72,6.93,-28.62,-84.01
-0.52,-0.06,0.72,6.93,-28.62,-84.01
-0.5,-0.01,0.68,-0.58,-24.43,-87.69
-0.48,0.03,0.65,-8.06,-20.67,-89.88
-0.46,0.07,0.61,-15.35,-17.71,-90.5
-0.44,0.09,0.6,-22.23,-15.53,-89.88
-0.42,0.13,0.61,-28.27,-13.8,-88.42
-0.42,0.13,0.61,-28.27,-13.8,-88.42
-0.39,0.18,0.61,-33.12,-12.03,-86.42
-0.33,0.25,0.62,-36.77,-9.87,-84.04
-0.27,0.33,0.65,-39.63,-7.2,-81.32
-0.2,0.41,0.66,-42.28,-3.95,-78.21
-0.13,0.48,0.65,-45.07,-0.08,-74.78
-0.13,0.48,0.65,-45.07,-0.08,-74.78
-0.05,0.56,0.65,-47.98,4.21,-71.15
0.04,0.64,0.67,-50.49,8.62,-67.4
0.14,0.73,0.72,-52.22,13.21,-63.51
0.23,0.8,0.76,-53.0,18.22,-58.91
0.26,0.87,0.8,-52.9,23.56,-52.78
0.26,0.87,0.8,-52.9,23.56,-52.78
0.23,0.88,0.83,-51.83,29.0,-44.99
0.16,0.86,0.85,-49.17,34.39,-36.1
0.09,0.85,0.85,-44.15,39.42,-26.47
0.04,0.87,0.87,-36.54,43.81,-16.33
0.01,0.93,0.92,-27.02,47.17,-6.09
0.01,0.93,0.92,-27.02,47.17,-6.09
0.04,1.02,0.98,-16.6,49.21,3.75
0.12,1.11,1.07,-6.27,49.78,12.82
0.23,1.2,1.16,2.97,49.28,21.05
0.29,1.24,1.25,10.02,48.31,28.57
0.31,1.22,1.31,14.07,47.35,35.6
0.31,1.22,1.31,14.07,47.35,35.6
0.26,1.14,1.33,14.96,46.59,42.35
0.21,1.01,1.33,13.43,45.53,48.83
0.18,0.87,1.33,11.04,43.77,55.25
0.17,0.75,1.35,8.93,41.2,61.63
0.16,0.63,1.37,7.42,38.2,67.81
0.16,0.63,1.37,7.42,38.2,67.81
0.15,0.52,1.39,6.24,34.94,73.69
0.15,0.41,1.39,5.07,31.5,79.25
0.13,0.29,1.4,3.93,27.76,84.53
0.1,0.17,1.39,2.89,23.63,89.41
0.1,0.17,1.39,1.82,19.03,93.56
0.06,0.08,1.42,1.82,19.03,93.56
0.04,-0.08,1.4,-0.24,13.59,96.14
0.02,-0.12,1.39,-1.69,7.71,98.52
-0.11,-0.27,1.35,-4.68,1.06,100.76
-0.09,-0.49,1.19,-5.08,-6.95,100.37
-0.09,-0.49,1.19,-2.04,-13.83,99.1
-0.13,-0.68,1.17,-2.04,-13.83,99.1
-0.12,-0.82,1.15,3.55,-21.76,97.41
-0.17,-0.78,1.19,12.12,-28.93,95.29
-0.14,-0.79,1.28,20.47,-35.89,89.47
-0.04,-0.82,1.31,26.73,-41.92,81.79
-0.04,-0.82,1.31,26.73,-41.92,81.79
-0.06,-0.81,1.26,28.53,-46.96,75.93
-0.09,-0.78,1.19,27.1,-51.83,70.77
-0.08,-0.83,1.15,24.49,-55.56,63.44
-0.08,-0.91,1.1,21.08,-58.0,54.21
-0.12,-0.96,1.01,17.24,-59.35,44.77
-0.12,-0.96,1.01,17.24,-59.35,44.77
-0.15,-1.0,0.89,14.0,-59.85,34.99
-0.15,-1.03,0.83,12.63,-59.48,24.14
-0.14,-1.01,0.82,12.69,-58.44,12.54
-0.15,-0.92,0.8,13.0,-57.15,1.13
-0.16,-0.83,0.77,13.23,-55.63,-10.13
-0.16,-0.83,0.77,13.23,-55.63,-10.13
-0.16,-0.74,0.75,13.3,-53.71,-21.53
-0.17,-0.64,0.74,12.97,-51.35,-32.57
-0.18,-0.54,0.74,11.97,-48.54,-42.72
-0.2,-0.44,0.74,10.33,-45.29,-52.15
-0.21,-0.35,0.75,7.7,-41.59,-61.24
-0.21,-0.35,0.75,7.7,-41.59,-61.24
-0.2,-0.27,0.75,3.26,-37.62,-69.98
-0.19,-0.21,0.74,-3.2,-33.47,-78.07
-0.19,-0.18,0.73,-11.12,-28.88,-85.25
-0.21,-0.17,0.72,-19.48,-23.83,-91.53
-0.25,-0.14,0.7,-27.25,-18.42,-96.91
-0.25,-0.14,0.7,-27.25,-18.42,-96.91
-0.31,-0.08,0.7,-33.86,-12.96,-101.37
-0.37,0.01,0.71,-39.29,-8.19,-105.01
-0.42,0.12,0.74,-43.9,-4.77,-107.78
-0.44,0.22,0.76,-48.29,-2.86,-109.55
-0.43,0.31,0.78,-52.94,-2.26,-110.18
-0.43,0.31,0.78,-52.94,-2.26,-110.18
-0.41,0.36,0.79,-57.86,-2.57,-109.53
-0.4,0.39,0.78,-62.53,-3.3,-107.65
-0.32,0.36,0.77,-66.29,-3.94,-105.07
-0.3,0.4,0.74,-68.57,-3.89,-100.81
-0.24,0.5,0.74,-69.08,-3.23,-96.36
-0.24,0.5,0.74,-69.08,-3.23,-96.36
-0.12,0.51,0.7,-68.02,-1.41,-92.76
-0.02,0.55,0.7,-63.45,1.4,-88.08
0.01,0.71,0.79,-55.66,5.32,-82.27
0.02,0.89,0.87,-47.3,10.66,-76.66
0.02,1.02,0.89,-40.28,17.74,-71.14
0.02,1.02,0.89,-40.28,17.74,-71.14
-0.03,1.1,0.9,-34.92,25.88,-64.33
-0.09,1.12,0.92,-31.2,34.01,-55.74
-0.15,1.13,0.93,-28.31,41.23,-45.28
-0.15,1.11,0.94,-25.25,47.06,-33.78
-0.16,1.11,0.95,-21.66,51.43,-21.1
-0.16,1.11,0.95,-21.66,51.43,-21.1
-0.18,1.14,0.96,-17.94,54.17,-7.19
-0.15,1.14,0.98,-14.66,54.97,6.63
-0.1,1.13,1.0,-12.26,54.12,19.66
-0.05,1.07,1.02,-10.79,51.85,31.71
0.0,0.96,1.05,-9.53,48.42,42.76
0.0,0.96,1.05,-9.53,48.42,42.76
0.03,0.87,1.07,-8.07,44.31,53.24
0.01,0.78,1.09,-7.07,39.79,63.07
-0.01,0.67,1.12,-7.1,35.1,71.77
-0.01,0.55,1.15,-8.11,30.19,79.33
0.02,0.44,1.18,-9.69,25.13,85.86
0.02,0.44,1.18,-9.69,25.13,85.86
0.05,0.32,1.19,-11.5,20.14,91.34
0.09,0.2,1.19,-13.11,15.43,96.06
0.08,0.09,1.19,-14.51,11.18,100.06
0.13,-0.1,1.15,-15.76,6.96,103.02
0.12,-0.11,1.14,-15.0,3.28,106.76
0.12,-0.11,1.14,-15.0,3.28,106.76
0.14,-0.32,1.09,-13.11,-0.71,108.88
0.18,-0.43,1.13,-7.33,-4.22,109.46
0.2,-0.5,1.17,-1.54,-7.2,109.48
0.19,-0.54,1.12,5.04,-10.53,110.53
0.12,-0.56,1.18,13.53,-13.25,111.35
0.12,-0.56,1.18,13.53,-13.25,111.35
0.07,-0.6,1.27,21.49,-15.97,109.12
0.07,-0.62,1.26,27.76,-18.79,104.8
0.03,-0.59,1.29,32.77,-21.58,99.97
0.01,-0.57,1.34,35.51,-24.7,93.56
0.03,-0.59,1.32,35.66,-28.15,85.64
0.03,-0.59,1.32,35.66,-28.15,85.64
0.04,-0.62,1.31,33.59,-31.79,77.01
0.04,-0.67,1.28,29.76,-35.54,67.69
0.04,-0.73,1.22,24.99,-38.99,57.97
0.03,-0.81,1.17,20.28,-41.8,47.99
0.02,-0.88,1.1,16.3,-43.8,37.9
0.02,-0.88,1.1,16.3,-43.8,37.9
-0.01,-0.92,1.02,13.83,-44.81,27.85
-0.04,-0.92,0.97,13.27,-44.89,17.75
-0.09,-0.89,0.94,14.44,-44.18,7.39
-0.11,-0.85,0.92,17.01,-42.85,-3.25
-0.15,-0.78,0.92,20.38,-40.82,-13.41
-0.15,-0.78,0.92,20.38,-40.82,-13.41
-0.24,-0.66,0.92,23.64,-38.35,-22.72
-0.28,-0.56,0.91,26.21,-35.76,-32.4
-0.28,-0.48,0.91,27.88,-32.79,-42.21
-0.32,-0.39,0.91,28.05,-29.65,-51.25
-0.38,-0.32,0.91,26.53,-26.43,-59.86
-0.38,-0.32,0.91,26.53,-26.43,-59.86
-0.43,-0.27,0.88,23.63,-23.01,-68.37
-0.49,-0.21,0.85,19.94,-19.78,-76.29
-0.54,-0.15,0.83,15.86,-17.21,-83.43
-0.58,-0.08,0.83,11.49,-15.55,-90.02
-0.58,-0.01,0.83,6.77,-14.73,-96.1
-0.58,-0.01,0.83,6.77,-14.73,-96.1
-0.55,0.06,0.82,1.67,-14.64,-101.37
-0.51,0.13,0.82,-3.92,-15.09,-105.48
-0.48,0.19,0.8,-10.09,-15.87,-108.23
-0.44,0.23,0.76,-16.57,-16.77,-109.67
-0.43,0.28,0.74,-22.8,-17.55,-109.97
-0.43,0.28,0.74,-22.8,-17.55,-109.97
-0.42,0.34,0.73,-28.37,-18.02,-109.53
-0.4,0.42,0.72,-33.31,-17.99,-108.71
-0.36,0.46,0.71,-37.48,-17.37,-107.68
-0.3,0.5,0.69,-40.58,-16.02,-106.04
-0.22,0.54,0.67,-42.33,-13.88,-103.07
-0.22,0.54,0.67,-42.33,-13.88,-103.07
-0.14,0.62,0.65,-42.55,-11.07,-98.62
-0.04,0.71,0.63,-40.83,-7.77,-93.13
0.07,0.8,0.64,-36.95,-4.21,-86.83
0.18,0.9,0.67,-31.2,-0.6,-79.35
0.25,0.99,0.72,-24.54,3.13,-70.1
0.25,0.99,0.72,-24.54,3.13,-70.1
0.28,1.06,0.75,-17.94,7.18,-58.82
0.25,1.09,0.78,-12.01,11.72,-45.93
0.19,1.1,0.81,-6.91,16.75,-32.26
0.14,1.1,0.84,-2.34,21.72,-18.5
