ax,ay,az,gx,gy,gz
-0.1,0.54,0.82,-2.01,1.02,-4.68
-0.1,0.53,0.82,-2.24,1.11,-4.78
-0.1,0.53,0.82,-2.28,1.09,-4.85
-0.1,0.53,0.84,-2.12,1.09,-4.9
-0.1,0.54,0.84,-1.78,1.12,-4.9
-0.1,0.54,0.84,-1.78,1.12,-4.9
-0.1,0.54,0.84,-1.37,1.19,-4.89
-0.11,0.54,0.84,-1.0,1.25,-4.83
-0.11,0.54,0.84,-0.69,1.18,-4.78
-0.11,0.54,0.84,-0.39,0.94,-4.73
-0.11,0.54,0.84,-0.11,0.54,-4.66
-0.11,0.54,0.84,-0.11,0.54,-4.66
-0.1,0.55,0.85,0.1,0.03,-4.56
-0.1,0.55,0.84,0.19,-0.55,-4.44
-0.1,0.55,0.84,0.12,-1.11,-4.33
-0.1,0.55,0.84,-0.05,-1.59,-4.25
-0.1,0.55,0.83,-0.32,-1.98,-4.17
-0.1,0.55,0.83,-0.32,-1.98,-4.17
-0.1,0.55,0.83,-0.63,-2.37,-4.07
-0.1,0.55,0.83,-1.0,-2.75,-3.95
-0.1,0.53,0.83,-1.42,-3.13,-3.79
-0.1,0.53,0.82,-1.83,-3.49,-3.67
-0.11,0.52,0.82,-2.08,-3.81,-3.72
-0.11,0.52,0.82,-2.08,-3.81,-3.72
-0.1,0.52,0.82,-2.06,-4.1,-3.83
-0.1,0.52,0.81,-1.82,-4.38,-3.91
-0.09,0.52,0.81,-1.44,-4.55,-3.98
-0.09,0.52,0.8,-0.95,-4.67,-4.08
-0.08,0.52,0.8,-0.35,-4.7,-4.11
-0.08,0.52,0.8,-0.35,-4.7,-4.11
-0.09,0.52,0.8,0.24,-4.61,-4.11
-0.09,0.53,0.8,0.85,-4.4,-4.12
-0.09,0.53,0.8,1.4,-4.16,-4.12
-0.1,0.54,0.8,1.76,-3.93,-4.05
-0.1,0.55,0.81,1.88,-3.71,-3.95
-0.1,0.55,0.81,1.88,-3.71,-3.95
-0.11,0.55,0.81,1.76,-3.5,-3.89
-0.11,0.56,0.81,1.37,-3.33,-3.82
-0.11,0.55,0.81,0.75,-3.16,-3.81
-0.11,0.54,0.8,-0.02,-3.02,-3.82
-0.11,0.54,0.8,-0.73,-2.94,-3.81
-0.11,0.54,0.8,-0.73,-2.94,-3.81
-0.11,0.53,0.8,-1.31,-2.89,-3.76
-0.11,0.53,0.8,-1.67,-2.81,-3.71
-0.1,0.53,0.8,-1.85,-2.72,-3.7
-0.1,0.53,0.8,-1.93,-2.55,-3.72
-0.09,0.53,0.8,-1.97,-2.34,-3.73
-0.09,0.53,0.8,-1.97,-2.34,-3.73
-0.09,0.53,0.8,-1.96,-2.04,-3.74
-0.09,0.52,0.8,-1.86,-1.7,-3.73
-0.09,0.52,0.8,-1.65,-1.33,-3.72
-0.1,0.52,0.8,-1.37,-0.98,-3.72
-0.1,0.53,0.81,-1.09,-0.65,-3.7
-0.1,0.53,0.81,-1.09,-0.65,-3.7
-0.1,0.53,0.81,-0.83,-0.36,-3.7
-0.1,0.52,0.81,-0.54,-0.13,-3.66
-0.1,0.53,0.81,-0.27,0.02,-3.61
-0.1,0.54,0.81,-0.03,0.08,-3.58
-0.1,0.54,0.82,0.1,0.08,-3.57
-0.1,0.54,0.82,0.1,0.08,-3.57
-0.1,0.54,0.82,0.02,-0.01,-3.59
-0.11,0.54,0.82,-0.31,-0.24,-3.63
-0.11,0.54,0.82,-0.87,-0.56,-3.68
-0.1,0.54,0.82,-1.52,-0.89,-3.79
-0.09,0.53,0.82,-2.19,-1.2,-3.95
-0.09,0.53,0.82,-2.19,-1.2,-3.95
-0.09,0.53,0.82,-2.88,-1.38,-4.18
-0.08,0.52,0.81,-3.5,-1.37,-4.37
-0.09,0.52,0.81,-3.9,-1.2,-4.57
-0.09,0.51,0.81,-3.95,-0.92,-4.73
-0.1,0.52,0.81,-3.66,-0.65,-4.86
-0.1,0.52,0.81,-3.66,-0.65,-4.86
-0.1,0.52,0.82,-3.13,-0.46,-4.93
-0.1,0.53,0.82,-2.46,-0.28,-4.95
-0.1,0.53,0.82,-1.73,-0.11,-4.94
-0.1,0.54,0.82,-0.97,0.05,-4.9
-0.11,0.54,0.82,-0.26,0.19,-4.8
-0.11,0.54,0.82,-0.26,0.19,-4.8
-0.11,0.55,0.83,0.31,0.28,-4.64
-0.11,0.55,0.83,0.7,0.28,-4.47
-0.11,0.56,0.83,0.86,0.22,-4.31
-0.11,0.56,0.84,0.82,0.1,-4.15
-0.11,0.56,0.84,0.47,-0.08,-3.96
-0.11,0.56,0.84,0.47,-0.08,-3.96
-0.11,0.56,0.84,-0.19,-0.34,-3.77
-0.11,0.55,0.83,-1.11,-0.7,-3.6
-0.11,0.53,0.83,-2.09,-1.16,-3.48
-0.1,0.52,0.82,-2.98,-1.65,-3.41
-0.09,0.5,0.81,-3.61,-2.05,-3.37
-0.09,0.5,0.81,-3.61,-2.05,-3.37
-0.09,0.5,0.81,-3.91,-2.33,-3.39
-0.08,0.49,0.81,-3.85,-2.43,-3.47
-0.08,0.5,0.81,-3.41,-2.24,-3.69
-0.09,0.5,0.81,-2.69,-1.79,-3.95
-0.09,0.51,0.81,-1.76,-1.22,-4.23
-0.09,0.51,0.81,-1.76,-1.22,-4.23
-0.09,0.52,0.81,-0.79,-0.67,-4.41
-0.1,0.54,0.81,0.16,-0.15,-4.49
-0.11,0.54,0.82,0.98,0.33,-4.49
-0.11,0.55,0.82,1.71,0.76,-4.47
-0.12,0.56,0.83,2.3,1.12,-4.42
-0.12,0.56,0.83,2.3,1.12,-4.42
-0.12,0.56,0.83,2.76,1.38,-4.4
-0.13,0.56,0.83,3.1,1.53,-4.34
-0.15,0.58,0.84,3.41,1.47,-4.22
-0.16,0.58,0.84,3.7,1.0,-4.06
-0.16,0.6,0.84,3.81,0.0,-3.86
-0.16,0.6,0.84,3.81,0.0,-3.86
-0.16,0.61,0.85,3.59,-1.52,-3.53
-0.14,0.62,0.85,2.85,-3.42,-3.12
-0.12,0.61,0.85,1.54,-5.58,-2.68
-0.09,0.6,0.83,-0.31,-7.73,-2.17
-0.07,0.58,0.83,-2.34,-9.39,-1.47
-0.07,0.58,0.83,-2.34,-9.39,-1.47
-0.06,0.55,0.8,-4.3,-10.44,-0.87
-0.05,0.52,0.79,-5.97,-11.08,-0.48
-0.05,0.5,0.78,-7.13,-11.36,-0.15
-0.04,0.48,0.78,-7.8,-11.21,0.1
-0.03,0.47,0.77,-7.97,-10.65,0.13
-0.03,0.47,0.77,-7.97,-10.65,0.13
-0.02,0.45,0.77,-7.63,-9.71,-0.03
-0.02,0.44,0.76,-6.71,-8.38,-0.28
-0.03,0.44,0.77,-5.25,-6.73,-0.67
-0.04,0.46,0.78,-3.41,-4.9,-1.18
-0.06,0.48,0.8,-1.49,-3.0,-1.85
-0.06,0.48,0.8,-1.49,-3.0,-1.85
-0.08,0.51,0.81,0.17,-1.2,-2.69
-0.09,0.53,0.83,1.4,0.36,-3.6
-0.1,0.55,0.84,2.04,1.52,-4.42
-0.12,0.56,0.85,1.99,2.15,-5.01
-0.13,0.57,0.85,1.19,2.26,-5.48
-0.13,0.57,0.85,1.19,2.26,-5.48
-0.12,0.56,0.84,-0.14,1.84,-5.82
-0.11,0.54,0.83,-1.68,1.02,-6.03
-0.1,0.53,0.82,-3.21,-0.05,-6.11
-0.09,0.52,0.81,-4.57,-1.12,-6.04
-0.08,0.51,0.8,-5.6,-2.1,-5.92
-0.08,0.51,0.8,-5.6,-2.1,-5.92
-0.07,0.51,0.79,-6.3,-2.91,-5.87
-0.06,0.51,0.78,-6.68,-3.52,-6.0
-0.04,0.52,0.78,-6.77,-3.85,-6.3
-0.0,0.52,0.78,-6.65,-3.77,-6.7
0.02,0.54,0.78,-6.43,-3.33,-7.17
0.02,0.54,0.78,-6.43,-3.33,-7.17
0.03,0.55,0.79,-6.19,-2.48,-7.75
0.03,0.56,0.79,-5.89,-1.29,-8.43
0.03,0.58,0.79,-5.54,-0.01,-9.2
0.03,0.61,0.8,-5.11,1.2,-10.1
0.04,0.64,0.8,-4.61,2.21,-11.06
0.04,0.64,0.8,-4.61,2.21,-11.06
0.07,0.68,0.8,-4.07,2.89,-11.99
0.1,0.72,0.79,-3.53,3.27,-12.86
0.15,0.76,0.79,-2.96,3.31,-13.64
0.2,0.81,0.8,-2.4,3.1,-14.41
0.24,0.86,0.8,-1.76,3.0,-15.15
0.24,0.86,0.8,-1.76,3.0,-15.15
0.27,0.9,0.8,-0.96,3.08,-15.8
0.29,0.95,0.78,-0.01,3.22,-16.32
0.31,0.98,0.78,1.06,3.21,-16.61
0.32,1.02,0.79,2.23,2.98,-16.65
0.33,1.04,0.78,3.51,2.62,-16.35
0.33,1.04,0.78,3.51,2.62,-16.35
0.33,1.07,0.77,4.94,2.15,-15.7
0.3,1.1,0.77,6.74,1.95,-14.73
0.25,1.12,0.78,8.95,2.01,-13.43
0.2,1.13,0.76,11.28,1.92,-11.77
0.16,1.14,0.73,13.5,1.44,-9.65
0.16,1.14,0.73,13.5,1.44,-9.65
0.16,1.16,0.71,15.64,0.31,-7.04
0.17,1.18,0.68,17.78,-1.33,-4.15
0.19,1.19,0.64,19.93,-3.24,-1.06
0.22,1.21,0.59,22.06,-5.23,2.14
0.25,1.24,0.56,24.08,-7.12,5.57
0.25,1.24,0.56,24.08,-7.12,5.57
0.26,1.26,0.55,25.66,-8.64,9.19
0.25,1.27,0.52,26.44,-9.46,12.97
0.22,1.26,0.49,26.17,-9.4,16.93
0.18,1.24,0.47,24.86,-8.46,21.09
0.13,1.22,0.46,22.64,-6.77,25.38
0.13,1.22,0.46,22.64,-6.77,25.38
0.09,1.21,0.47,19.84,-4.46,29.7
0.06,1.22,0.48,16.82,-1.59,33.9
0.04,1.22,0.49,13.6,1.79,37.92
0.03,1.21,0.48,9.8,5.53,41.72
0.02,1.16,0.47,5.25,9.46,45.38
0.02,1.16,0.47,5.25,9.46,45.38
0.0,1.09,0.47,0.29,13.45,49.08
-0.03,1.01,0.47,-4.52,17.35,52.91
-0.07,0.92,0.47,-8.69,21.01,56.89
-0.11,0.85,0.48,-11.89,24.18,60.9
-0.16,0.78,0.5,-14.12,26.85,64.79
-0.16,0.78,0.5,-14.12,26.85,64.79
-0.22,0.71,0.53,-15.72,28.99,68.47
-0.27,0.64,0.55,-17.0,30.69,71.99
-0.32,0.59,0.59,-17.98,32.08,75.36
-0.35,0.55,0.66,-18.81,33.43,78.47
-0.37,0.5,0.73,-19.88,34.99,81.22
-0.37,0.5,0.73,-19.88,34.99,81.22
-0.39,0.46,0.81,-21.71,37.23,83.52
-0.44,0.42,0.87,-24.41,40.35,85.23
-0.49,0.34,0.9,-27.9,43.99,86.27
-0.54,0.26,0.91,-31.93,47.36,86.66
-0.56,0.18,0.93,-36.2,49.81,86.58
-0.56,0.18,0.93,-36.2,49.81,86.58
-0.57,0.11,0.99,-40.17,51.28,86.04
-0.59,0.07,1.04,-43.15,52.19,85.0
-0.61,0.03,1.06,-44.84,52.75,83.36
-0.61,-0.0,1.07,-45.62,52.71,81.51
-0.61,-0.04,1.08,-45.98,51.75,79.8
-0.61,-0.04,1.08,-45.98,51.75,79.8
-0.6,-0.08,1.1,-45.99,49.95,78.28
-0.57,-0.13,1.11,-45.4,47.53,76.72
-0.53,-0.17,1.12,-43.92,44.7,74.93
-0.52,-0.21,1.09,-41.22,41.44,72.9
-0.52,-0.21,1.09,-37.53,38.2,69.25
-0.42,-0.24,1.1,-37.53,38.2,69.25
-0.46,-0.21,1.07,-33.81,35.12,66.64
-0.39,-0.22,1.05,-29.43,31.88,62.75
-0.38,-0.2,1.06,-24.51,29.29,58.8
-0.35,-0.19,1.06,-19.01,27.35,54.22
-0.35,-0.19,1.06,-13.67,26.37,49.18
-0.33,-0.15,1.05,-13.67,26.37,49.18
-0.32,-0.1,1.05,-8.68,25.93,43.99
-0.32,-0.05,1.07,-3.88,26.16,39.11
-0.33,0.01,1.09,0.27,26.92,34.38
-0.36,0.06,1.1,3.32,27.76,30.11
-0.36,0.06,1.1,3.32,27.76,30.11
-0.38,0.08,1.09,5.1,28.21,26.59
-0.39,0.08,1.08,5.67,27.84,23.9
-0.4,0.09,1.07,5.44,26.38,21.95
-0.4,0.09,1.07,4.79,23.92,20.48
-0.38,0.09,1.07,3.84,20.62,19.23
-0.38,0.09,1.07,3.84,20.62,19.23
-0.36,0.09,1.07,2.58,16.74,18.16
-0.33,0.08,1.07,1.27,12.62,17.27
-0.29,0.06,1.07,0.01,8.51,16.55
-0.25,0.04,1.07,-1.13,4.72,16.06
-0.23,0.02,1.08,-1.91,1.57,15.73
-0.23,0.02,1.08,-1.91,1.57,15.73
-0.22,0.01,1.09,-2.27,-0.8,15.3
-0.22,0.0,1.1,-2.5,-2.58,14.49
-0.22,-0.02,1.11,-2.85,-3.97,13.24
-0.21,-0.03,1.11,-3.41,-5.22,11.72
-0.19,-0.05,1.13,-3.99,-6.38,9.85
-0.19,-0.05,1.13,-3.99,-6.38,9.85
-0.16,-0.06,1.15,-4.52,-7.22,7.63
-0.15,-0.08,1.16,-4.99,-7.57,5.42
-0.15,-0.1,1.15,-5.3,-7.64,3.35
-0.14,-0.13,1.16,-5.29,-7.64,1.11
-0.16,-0.15,1.17,-5.28,-7.81,-0.8
-0.16,-0.15,1.17,-5.28,-7.81,-0.8
-0.17,-0.17,1.18,-5.07,-8.72,-2.62
-0.18,-0.19,1.21,-3.91,-10.14,-4.56
-0.19,-0.2,1.25,-1.89,-11.96,-6.61
-0.21,-0.15,1.33,0.63,-14.17,-8.78
-0.17,-0.11,1.37,1.58,-16.7,-12.06
-0.17,-0.11,1.37,1.58,-16.7,-12.06
-0.16,-0.11,1.38,1.11,-19.69,-15.44
-0.17,-0.11,1.41,0.42,-22.3,-18.38
-0.14,-0.09,1.43,-1.6,-24.85,-21.46
-0.14,-0.07,1.42,-5.2,-27.5,-24.12
-0.16,-0.06,1.39,-10.01,-30.06,-26.19
-0.16,-0.06,1.39,-10.01,-30.06,-26.19
-0.16,-0.07,1.34,-15.98,-32.9,-28.13
-0.13,-0.09,1.32,-22.98,-36.31,-30.34
-0.09,-0.13,1.32,-30.3,-39.88,-33.1
-0.04,-0.16,1.36,-37.28,-42.72,-36.6
-0.02,-0.21,1.37,-44.82,-44.24,-40.26
-0.02,-0.21,1.37,-44.82,-44.24,-40.26
-0.02,-0.25,1.36,-51.9,-45.03,-43.48
-0.06,-0.3,1.38,-58.52,-44.61,-46.47
-0.11,-0.34,1.41,-64.61,-44.31,-50.27
-0.18,-0.38,1.4,-69.96,-44.15,-55.06
-0.26,-0.39,1.37,-73.79,-44.2,-60.79
-0.26,-0.39,1.37,-73.79,-44.2,-60.79
-0.35,-0.39,1.34,-75.65,-44.78,-67.35
-0.37,-0.36,1.29,-75.28,-46.87,-74.64
-0.34,-0.3,1.23,-72.95,-50.29,-81.74
-0.32,-0.21,1.2,-69.39,-54.44,-88.18
-0.29,-0.13,1.16,-65.63,-59.32,-94.23
-0.29,-0.13,1.16,-65.63,-59.32,-94.23
-0.28,-0.09,1.09,-61.74,-64.71,-100.1
-0.29,-0.03,1.03,-57.3,-70.09,-105.38
-0.34,0.07,0.97,-52.36,-75.38,-109.44
-0.37,0.21,0.93,-47.58,-80.92,-112.49
-0.36,0.32,0.9,-43.56,-86.71,-115.24
-0.36,0.32,0.9,-43.56,-86.71,-115.24
-0.32,0.39,0.87,-40.85,-92.21,-117.89
-0.27,0.42,0.81,-39.54,-96.6,-120.33
-0.22,0.43,0.72,-39.13,-99.07,-122.25
-0.19,0.44,0.63,-38.83,-99.25,-123.32
-0.17,0.46,0.55,-37.98,-97.1,-123.58
-0.17,0.46,0.55,-37.98,-97.1,-123.58
-0.17,0.5,0.49,-36.22,-92.73,-123.29
-0.19,0.56,0.44,-33.32,-86.47,-122.87
-0.23,0.64,0.42,-29.11,-78.6,-122.67
-0.29,0.73,0.42,-23.6,-69.4,-123.04
-0.34,0.83,0.42,-17.01,-59.57,-123.87
-0.34,0.83,0.42,-17.01,-59.57,-123.87
-0.37,0.91,0.43,-9.94,-50.12,-124.69
-0.4,0.99,0.43,-3.21,-41.91,-124.88
-0.42,1.06,0.45,2.4,-35.38,-124.14
-0.44,1.11,0.45,6.35,-30.7,-122.59
-0.43,1.16,0.44,8.52,-27.69,-120.33
-0.43,1.16,0.44,8.52,-27.69,-120.33
-0.4,1.22,0.43,9.12,-26.01,-117.49
-0.36,1.27,0.47,8.42,-25.5,-114.41
-0.32,1.31,0.52,6.32,-25.56,-111.48
-0.27,1.32,0.56,2.45,-25.48,-108.74
-0.22,1.3,0.57,-3.41,-24.89,-105.98
-0.22,1.3,0.57,-3.41,-24.89,-105.98
-0.19,1.25,0.58,-11.16,-23.88,-102.92
-0.16,1.19,0.59,-20.56,-22.64,-99.57
-0.15,1.12,0.59,-31.0,-21.3,-96.14
-0.15,1.06,0.61,-41.58,-19.92,-93.0
-0.16,1.0,0.61,-51.39,-18.47,-90.49
-0.16,1.0,0.61,-51.39,-18.47,-90.49
-0.18,0.95,0.6,-59.37,-17.08,-88.72
-0.18,0.9,0.59,-64.59,-15.91,-87.74
-0.15,0.84,0.58,-66.7,-14.81,-87.3
-0.12,0.8,0.59,-65.78,-13.47,-86.75
-0.08,0.78,0.61,-62.25,-11.94,-85.45
-0.08,0.78,0.61,-62.25,-11.94,-85.45
-0.06,0.78,0.64,-56.72,-10.29,-83.22
-0.04,0.77,0.68,-49.89,-8.54,-80.2
-0.03,0.78,0.7,-42.35,-6.64,-76.68
-0.04,0.79,0.7,-34.56,-4.77,-72.91
-0.05,0.8,0.7,-26.92,-3.23,-69.18
-0.05,0.8,0.7,-26.92,-3.23,-69.18
-0.05,0.8,0.71,-19.84,-2.21,-65.75
-0.04,0.81,0.71,-13.6,-1.69,-62.72
-0.03,0.8,0.73,-8.38,-1.49,-59.97
-0.0,0.79,0.75,-4.3,-1.38,-57.38
0.02,0.77,0.77,-1.3,-1.17,-54.74
0.02,0.77,0.77,-1.3,-1.17,-54.74
0.02,0.77,0.8,0.61,-0.64,-52.13
0.0,0.76,0.79,1.1,0.12,-49.7
-0.02,0.74,0.76,1.23,0.75,-47.09
-0.03,0.73,0.74,2.09,1.18,-44.62
-0.01,0.73,0.76,3.71,1.3,-42.54
-0.01,0.73,0.76,3.71,1.3,-42.54
0.0,0.77,0.78,5.55,1.18,-40.67
0.01,0.8,0.78,7.0,0.93,-39.0
0.03,0.8,0.77,7.82,0.55,-37.51
0.06,0.78,0.76,8.12,0.02,-35.81
0.08,0.77,0.76,8.22,-0.62,-33.65
0.08,0.77,0.76,8.22,-0.62,-33.65
0.1,0.77,0.77,8.34,-1.14,-31.3
0.12,0.78,0.77,8.66,-1.33,-29.02
0.14,0.8,0.77,9.14,-1.06,-26.96
0.16,0.82,0.77,9.51,-0.34,-25.24
0.18,0.85,0.76,9.8,0.74,-23.69
0.18,0.85,0.76,9.8,0.74,-23.69
0.21,0.88,0.74,9.77,2.34,-21.59
0.18,0.92,0.71,9.8,4.19,-17.8
0.15,0.98,0.69,10.19,5.98,-13.21
0.13,1.09,0.65,10.46,7.0,-9.81
0.16,1.12,0.6,10.28,6.85,-9.04
0.16,1.12,0.6,10.28,6.85,-9.04
0.22,1.08,0.63,10.47,6.26,-9.33
0.23,1.05,0.67,10.56,6.43,-8.45
0.2,1.07,0.66,9.64,7.07,-6.42
0.18,1.14,0.6,7.62,7.96,-4.31
0.14,1.2,0.56,5.17,8.96,-2.57
0.14,1.2,0.56,5.17,8.96,-2.57
0.11,1.25,0.53,2.68,9.97,-1.37
0.07,1.28,0.52,0.25,10.64,-0.65
0.05,1.3,0.51,-2.05,11.0,-0.32
0.03,1.31,0.5,-4.51,11.34,-0.04
0.03,1.29,0.5,-7.0,11.71,0.4
0.03,1.29,0.5,-7.0,11.71,0.4
0.02,1.29,0.51,-9.35,12.2,0.78
0.06,1.23,0.53,-10.7,13.19,1.47
0.03,1.16,0.55,-8.93,15.74,5.09
-0.02,1.09,0.53,-4.5,19.74,9.45
-0.01,1.05,0.49,0.9,24.06,12.91
-0.01,1.05,0.49,0.9,24.06,12.91
-0.09,1.08,0.53,7.77,28.02,17.94
-0.17,1.09,0.6,15.77,31.56,23.33
-0.21,1.09,0.65,23.67,34.92,27.59
-0.23,1.08,0.69,30.61,37.78,31.24
-0.25,1.06,0.74,36.03,40.35,34.7
-0.25,1.06,0.74,36.03,40.35,34.7
-0.26,1.02,0.8,40.11,42.96,38.15
-0.3,0.99,0.87,42.98,45.92,42.13
-0.34,0.94,0.9,43.91,48.96,45.86
-0.36,0.89,0.93,43.18,51.25,48.92
-0.4,0.85,1.0,41.59,52.5,51.97
-0.4,0.85,1.0,41.59,52.5,51.97
-0.46,0.82,1.06,39.01,52.87,55.15
-0.51,0.79,1.1,34.93,52.04,58.03
-0.53,0.75,1.13,29.19,49.91,60.47
-0.53,0.68,1.16,21.85,46.92,62.63
-0.51,0.59,1.19,13.24,43.58,64.76
-0.51,0.59,1.19,13.24,43.58,64.76
-0.49,0.47,1.2,4.04,40.22,67.1
-0.48,0.35,1.19,-4.74,37.05,69.81
-0.48,0.26,1.16,-12.11,34.14,72.88
-0.47,0.18,1.13,-17.54,31.34,75.9
-0.48,0.11,1.1,-21.12,28.57,78.49
-0.48,0.11,1.1,-21.12,28.57,78.49
-0.47,0.05,1.06,-23.15,25.78,80.36
-0.44,-0.0,1.03,-23.76,22.84,81.56
-0.4,-0.04,1.02,-22.89,19.89,82.33
-0.36,-0.07,1.02,-20.9,17.21,82.75
-0.34,-0.1,1.05,-18.42,15.03,82.95
-0.34,-0.1,1.05,-18.42,15.03,82.95
-0.34,-0.12,1.07,-16.25,13.47,82.79
-0.34,-0.15,1.08,-14.63,12.51,82.08
-0.35,-0.18,1.08,-13.59,12.12,80.66
-0.34,-0.2,1.06,-13.06,12.12,78.36
-0.3,-0.21,1.06,-12.75,12.35,75.11
-0.3,-0.21,1.06,-12.75,12.35,75.11
-0.25,-0.23,1.07,-12.26,12.96,71.23
-0.2,-0.23,1.1,-11.74,14.16,67.14
-0.19,-0.22,1.1,-11.7,15.98,63.5
-0.21,-0.19,1.08,-11.64,18.18,60.29
-0.24,-0.17,1.06,-11.37,20.46,57.18
-0.24,-0.17,1.06,-11.37,20.46,57.18
-0.27,-0.13,1.07,-10.96,22.1,54.01
-0.27,-0.15,1.04,-11.77,22.74,51.1
-0.23,-0.16,1.01,-14.03,21.74,48.89
-0.22,-0.24,0.93,-16.94,19.55,48.18
-0.21,-0.23,0.93,-17.98,16.69,47.84
-0.21,-0.23,0.93,-17.98,16.69,47.84
-0.15,-0.29,0.92,-18.38,14.18,45.58
-0.1,-0.32,0.97,-15.83,12.16,43.55
-0.12,-0.24,1.03,-11.64,12.26,42.82
-0.15,-0.1,1.09,-8.25,13.38,41.66
-0.15,-0.0,1.13,-6.68,14.85,38.63
-0.15,-0.0,1.13,-6.68,14.85,38.63
-0.14,0.0,1.14,-7.36,16.72,34.38
-0.16,-0.01,1.11,-9.57,18.79,30.81
-0.17,-0.04,1.08,-12.56,20.5,27.43
-0.17,-0.07,1.04,-15.31,21.43,24.01
-0.18,-0.1,1.01,-17.08,21.45,21.31
-0.18,-0.1,1.01,-17.08,21.45,21.31
-0.2,-0.1,0.99,-17.51,20.59,19.28
-0.21,-0.08,0.99,-16.72,18.98,17.35
-0.19,-0.05,0.99,-15.24,16.81,15.26
-0.17,-0.03,1.0,-13.54,14.39,13.25
-0.17,0.0,1.01,-11.73,12.08,11.45
-0.17,0.0,1.01,-11.73,12.08,11.45
-0.17,0.05,1.01,-9.88,10.2,9.73
-0.18,0.1,1.03,-8.2,8.68,8.08
-0.17,0.14,1.03,-7.01,7.56,6.67
-0.18,0.18,1.04,-6.51,6.71,5.52
-0.19,0.19,1.02,-6.81,5.91,4.58
-0.19,0.19,1.02,-6.81,5.91,4.58
-0.2,0.18,0.98,-7.81,4.82,3.8
-0.2,0.15,0.95,-9.11,3.21,3.24
-0.19,0.15,0.95,-10.29,1.09,2.9
-0.17,0.16,0.95,-11.25,-1.23,2.61
-0.16,0.18,0.96,-12.09,-3.28,2.13
-0.16,0.18,0.96,-12.09,-3.28,2.13
-0.15,0.19,0.97,-13.1,-4.77,1.35
-0.15,0.18,0.96,-14.57,-5.76,0.32
-0.16,0.17,0.94,-16.35,-6.49,-0.73
-0.17,0.16,0.93,-18.14,-7.21,-1.67
-0.16,0.13,0.9,-19.7,-7.99,-2.36
-0.16,0.13,0.9,-19.7,-7.99,-2.36
-0.17,0.12,0.88,-21.12,-9.01,-2.41
-0.19,0.14,0.85,-22.14,-10.6,-2.18
-0.16,0.13,0.85,-22.04,-12.53,-3.02
-0.07,0.08,0.88,-20.22,-13.37,-4.24
-0.15,0.19,0.92,-17.78,-12.79,-3.54
-0.15,0.19,0.92,-17.78,-12.79,-3.54
-0.12,0.19,0.94,-16.19,-12.76,-4.97
-0.12,0.18,0.93,-14.05,-11.87,-6.75
-0.16,0.19,0.92,-11.62,-10.01,-7.3
-0.18,0.19,0.91,-10.01,-8.63,-7.99
-0.2,0.18,0.87,-8.87,-7.99,-8.51
-0.2,0.18,0.87,-8.87,-7.99,-8.51
-0.15,0.12,0.87,-7.29,-7.57,-8.48
-0.27,0.18,0.84,-6.04,-6.91,-6.82
-0.23,0.14,0.82,-5.66,-7.95,-7.62
-0.19,0.13,0.85,-4.66,-9.04,-9.3
-0.18,0.13,0.84,-3.39,-9.22,-10.57
-0.18,0.13,0.84,-3.39,-9.22,-10.57
-0.13,0.13,0.86,-1.86,-8.88,-11.71
-0.12,0.2,0.9,-0.5,-7.57,-12.42
-0.13,0.24,0.91,-0.67,-5.74,-12.58
-0.17,0.28,0.92,-2.26,-4.02,-12.47
-0.19,0.28,0.91,-4.71,-2.3,-13.39
-0.19,0.28,0.91,-4.71,-2.3,-13.39
-0.2,0.24,0.92,-7.12,-0.4,-14.76
-0.23,0.24,0.92,-9.16,1.78,-15.38
-0.26,0.26,0.91,-11.03,3.71,-15.28
-0.28,0.29,0.91,-12.3,5.01,-14.9
-0.29,0.31,0.92,-12.65,5.68,-14.65
-0.29,0.31,0.92,-12.65,5.68,-14.65
-0.29,0.32,0.92,-12.31,5.72,-14.6
-0.28,0.33,0.91,-11.73,5.17,-14.0
-0.28,0.35,0.91,-11.35,3.95,-12.14
-0.27,0.36,0.93,-11.15,1.92,-9.63
-0.25,0.36,0.98,-10.89,-0.31,-7.21
-0.25,0.36,0.98,-10.89,-0.31,-7.21
-0.23,0.41,1.06,-11.27,-1.79,-4.4
-0.28,0.39,1.02,-15.24,-2.91,-1.37
-0.28,0.3,1.02,-19.91,-4.8,1.16
