ax,ay,az,gx,gy,gz
0.01,-0.09,0.95,12.31,3.55,-3.54
-0.0,-0.1,0.97,15.13,2.25,-2.0
-0.0,-0.1,0.97,15.13,2.25,-2.0
-0.05,-0.09,0.97,18.28,0.67,-0.76
-0.06,-0.11,0.97,21.91,-1.55,-0.58
-0.03,-0.08,0.98,25.72,-4.48,-0.69
-0.02,-0.03,0.99,28.74,-7.73,-0.58
0.04,-0.07,1.0,30.82,-10.56,-0.64
0.04,-0.07,1.0,30.82,-10.56,-0.64
0.04,-0.07,1.0,31.65,-13.37,-0.05
0.05,-0.08,1.01,31.97,-15.97,0.92
0.02,-0.03,1.01,31.83,-18.18,2.13
0.03,-0.05,1.02,31.3,-19.95,3.04
0.01,-0.05,1.01,30.07,-21.44,3.7
0.01,-0.05,1.01,30.07,-21.44,3.7
0.02,-0.06,1.01,28.33,-22.86,3.99
0.01,-0.06,1.0,26.31,-24.24,3.96
0.01,-0.06,0.98,24.37,-25.35,3.56
-0.0,-0.04,0.97,22.79,-26.04,2.93
0.01,-0.07,0.99,21.53,-26.38,2.03
0.01,-0.07,0.99,21.53,-26.38,2.03
0.01,-0.07,0.99,20.09,-26.84,1.07
0.0,-0.07,0.99,18.45,-27.52,-0.32
0.04,-0.08,0.98,16.88,-28.12,-2.36
0.07,-0.08,0.96,15.49,-28.4,-4.78
0.11,-0.06,0.94,14.33,-28.0,-7.16
0.11,-0.06,0.94,14.33,-28.0,-7.16
0.11,-0.05,0.94,13.59,-26.98,-9.23
0.1,-0.04,0.95,13.06,-25.52,-11.02
0.09,-0.05,0.96,12.29,-23.6,-12.83
0.07,-0.06,0.94,11.16,-20.99,-14.84
0.06,-0.06,0.92,9.81,-17.7,-16.93
0.06,-0.06,0.92,9.81,-17.7,-16.93
0.04,-0.06,0.92,8.5,-13.95,-18.76
0.01,-0.06,0.92,7.4,-9.9,-20.41
0.2,-0.32,0.89,6.68,-6.07,-21.72
0.28,-0.37,0.86,7.09,-3.64,-20.02
0.23,-0.3,0.85,9.48,-2.03,-15.88
0.23,-0.3,0.85,9.48,-2.03,-15.88
0.16,-0.22,0.83,14.47,0.36,-10.65
0.11,-0.19,0.84,21.72,2.91,-4.8
0.08,-0.16,0.91,30.77,5.21,1.87
0.04,-0.09,1.0,40.85,7.4,8.69
-0.01,0.03,1.09,49.82,8.31,14.03
-0.01,0.03,1.09,49.82,8.31,14.03
-0.08,0.12,1.19,55.85,7.64,16.99
-0.13,0.18,1.25,58.42,6.78,17.41
-0.13,0.2,1.24,57.23,6.01,15.62
-0.08,0.18,1.18,52.51,5.05,12.65
-0.04,0.12,1.12,45.35,4.4,9.61
-0.04,0.12,1.12,45.35,4.4,9.61
0.03,0.09,1.09,37.41,3.87,7.53
0.05,0.04,1.13,29.94,2.66,5.33
-0.0,0.02,1.11,23.02,2.6,3.18
-0.07,0.01,1.08,16.53,2.73,1.54
-0.11,0.01,1.05,10.47,2.2,0.16
-0.11,0.01,1.05,10.47,2.2,0.16
-0.1,-0.01,1.03,5.22,1.0,-1.58
-0.05,-0.03,1.02,1.08,-0.83,-3.67
-0.01,-0.04,1.02,-1.86,-3.18,-5.41
0.0,-0.03,1.01,-3.68,-5.75,-6.36
0.01,-0.02,1.01,-4.6,-8.28,-6.69
0.01,-0.02,1.01,-4.6,-8.28,-6.69
0.01,-0.01,1.0,-4.83,-10.69,-6.63
0.02,-0.02,0.99,-4.47,-12.85,-6.33
0.04,-0.03,0.98,-3.46,-14.59,-5.95
0.05,-0.05,0.97,-1.73,-15.84,-5.53
0.06,-0.05,0.98,0.5,-16.55,-5.05
0.06,-0.05,0.98,0.5,-16.55,-5.05
0.06,-0.05,0.98,3.01,-16.64,-4.64
0.05,-0.05,0.98,5.67,-16.05,-4.39
0.04,-0.05,0.98,8.37,-15.04,-4.35
0.03,-0.05,0.98,11.09,-13.88,-4.46
0.03,-0.04,0.98,13.85,-12.77,-4.64
0.03,-0.04,0.98,13.85,-12.77,-4.64
0.02,-0.02,0.98,16.64,-11.91,-4.82
0.01,0.01,1.0,19.25,-11.38,-4.97
0.01,0.03,1.01,21.41,-11.21,-5.11
0.01,0.05,1.01,22.86,-11.27,-5.28
0.02,0.05,1.01,23.68,-11.48,-5.45
0.02,0.05,1.01,23.68,-11.48,-5.45
0.02,0.05,1.01,23.98,-11.85,-5.5
0.02,0.05,1.0,23.89,-12.42,-5.41
0.03,0.05,1.0,23.44,-13.17,-5.26
0.05,0.05,1.0,22.59,-13.79,-5.51
0.08,0.04,1.0,21.41,-13.98,-6.54
0.08,0.04,1.0,21.41,-13.98,-6.54
0.11,0.03,0.99,20.16,-13.45,-8.29
0.15,0.02,0.98,18.99,-11.9,-10.36
0.18,0.01,0.96,17.97,-8.93,-12.34
0.18,0.02,0.95,17.39,-4.74,-13.87
0.15,0.02,0.95,17.39,0.41,-14.82
0.15,0.02,0.95,17.39,0.41,-14.82
0.1,0.03,0.95,17.86,6.19,-15.38
0.06,0.04,0.94,18.57,12.0,-15.83
0.03,0.05,0.94,19.4,17.23,-16.19
0.02,0.06,0.95,20.28,21.46,-16.41
0.03,0.07,0.97,21.08,24.61,-16.37
0.03,0.07,0.97,21.08,24.61,-16.37
0.04,0.08,1.0,21.6,26.68,-15.91
0.04,0.09,1.02,21.7,27.88,-14.88
0.03,0.09,1.04,21.22,28.33,-13.39
0.01,0.09,1.05,20.12,28.15,-11.67
-0.01,0.08,1.05,18.48,27.3,-9.98
-0.01,0.08,1.05,18.48,27.3,-9.98
-0.02,0.08,1.05,16.46,25.87,-8.46
-0.02,0.07,1.05,14.3,23.94,-7.15
-0.02,0.06,1.05,12.12,21.59,-6.04
-0.02,0.06,1.05,9.98,18.92,-5.18
-0.0,0.06,1.05,7.91,16.09,-4.6
-0.0,0.06,1.05,7.91,16.09,-4.6
0.01,0.06,1.04,5.97,13.37,-4.18
0.02,0.06,1.05,4.15,10.88,-3.78
0.03,0.05,1.06,2.36,8.6,-3.39
0.03,0.04,1.06,0.56,6.57,-3.02
0.03,0.03,1.05,-1.17,4.75,-2.7
0.03,0.03,1.05,-1.17,4.75,-2.7
0.02,0.03,1.04,-2.69,3.03,-2.44
0.02,0.01,1.03,-3.78,1.29,-2.25
0.03,0.0,1.02,-4.35,-0.58,-2.09
0.04,-0.0,1.01,-4.35,-2.52,-1.87
0.06,-0.01,1.01,-3.77,-4.45,-1.58
0.06,-0.01,1.01,-3.77,-4.45,-1.58
0.07,-0.02,1.01,-2.62,-6.24,-1.22
0.08,-0.02,1.0,-0.86,-7.72,-0.81
0.11,-0.03,1.01,1.44,-8.75,-0.37
0.13,-0.04,1.01,4.22,-9.32,0.07
0.14,-0.05,1.0,7.57,-9.48,0.54
0.14,-0.05,1.0,7.57,-9.48,0.54
0.15,-0.04,0.98,11.56,-9.3,0.9
0.19,-0.06,0.96,16.32,-8.49,1.03
0.27,-0.11,0.95,22.09,-6.21,1.03
0.33,-0.16,0.94,29.42,-1.9,1.31
0.36,-0.18,0.89,38.78,4.29,1.95
0.36,-0.18,0.89,38.78,4.29,1.95
0.36,-0.18,0.83,50.66,12.03,2.86
0.34,-0.14,0.76,65.54,20.82,4.04
0.29,-0.06,0.72,83.64,29.97,5.6
0.21,0.06,0.73,104.45,38.55,7.66
0.08,0.24,0.76,126.91,45.15,10.27
0.08,0.24,0.76,126.91,45.15,10.27
-0.07,0.46,0.89,149.48,48.87,12.62
-0.19,0.7,1.07,170.05,49.75,13.61
-0.25,0.98,1.31,187.27,48.35,12.78
-0.21,1.17,1.63,198.84,45.44,10.47
-0.2,1.31,1.54,197.61,39.66,9.28
-0.2,1.31,1.54,197.61,39.66,9.28
-0.21,1.56,1.37,186.39,31.23,11.65
-0.34,1.95,1.4,169.69,17.65,17.2
-0.39,2.08,1.41,147.31,-2.13,23.03
-0.29,2.08,1.32,117.93,-22.11,26.24
-0.02,1.95,1.2,80.73,-39.67,25.42
-0.02,1.95,1.2,80.73,-39.67,25.42
0.24,1.64,1.15,36.72,-55.39,23.43
0.4,1.32,1.09,-12.74,-66.01,22.84
0.46,1.03,0.99,-64.36,-70.39,23.6
0.42,0.77,0.94,-113.45,-70.84,24.85
0.33,0.5,0.97,-155.77,-70.42,25.94
0.33,0.5,0.97,-155.77,-70.42,25.94
0.25,0.13,1.12,-186.9,-71.52,27.13
0.31,-0.15,1.05,-201.83,-72.48,29.87
0.41,-0.28,0.74,-202.4,-67.18,33.74
0.4,-0.41,0.65,-192.73,-58.7,37.52
0.37,-0.48,0.55,-174.79,-51.02,41.19
0.37,-0.48,0.55,-174.79,-51.02,41.19
0.33,-0.39,0.49,-147.91,-43.42,45.28
0.3,-0.17,0.56,-114.18,-36.45,49.43
0.25,0.08,0.77,-78.29,-30.97,52.78
0.2,0.5,1.06,-46.14,-26.62,53.84
0.23,0.61,1.02,-23.16,-23.95,52.49
0.23,0.61,1.02,-23.16,-23.95,52.49
0.31,0.65,0.84,-1.56,-21.41,52.2
0.3,0.6,0.81,19.12,-18.0,54.55
0.21,0.63,1.03,39.0,-15.18,59.83
0.07,0.73,1.31,53.79,-12.75,65.95
-0.01,0.85,1.27,59.26,-12.35,70.98
-0.01,0.85,1.27,59.26,-12.35,70.98
0.01,0.88,0.95,54.65,-14.46,74.82
0.09,0.76,0.71,43.51,-18.47,78.16
0.2,0.56,0.7,27.78,-22.67,81.12
0.28,0.39,0.75,8.04,-24.66,83.48
0.33,0.24,0.79,-13.08,-23.66,85.26
0.33,0.24,0.79,-13.08,-23.66,85.26
0.34,0.05,0.89,-31.11,-19.81,86.8
0.36,-0.16,0.94,-40.89,-13.12,89.0
0.36,-0.3,0.8,-40.93,-1.83,92.34
0.19,-0.35,0.6,-33.63,13.29,96.12
-0.06,-0.32,0.54,-19.95,28.17,99.6
-0.06,-0.32,0.54,-19.95,28.17,99.6
-0.29,-0.21,0.68,-0.4,40.05,102.71
-0.42,-0.04,0.89,21.92,48.39,104.77
-0.49,0.13,1.11,42.4,52.4,104.92
-0.54,0.34,1.34,56.97,51.44,102.76
-0.57,0.53,1.4,62.4,45.69,98.34
-0.57,0.53,1.4,62.4,45.69,98.34
-0.54,0.64,1.28,58.02,35.1,92.49
-0.51,0.65,1.18,45.54,20.05,86.12
-0.43,0.53,1.14,27.06,1.38,79.57
-0.36,0.4,1.06,4.42,-18.54,75.23
-0.29,0.27,0.92,-20.95,-37.99,74.2
-0.29,0.27,0.92,-20.95,-37.99,74.2
-0.18,0.1,0.83,-47.42,-56.46,74.43
-0.07,-0.11,0.79,-71.63,-71.37,74.56
0.06,-0.34,0.69,-90.2,-79.55,73.7
0.2,-0.62,0.48,-100.02,-78.92,71.32
0.27,-0.88,0.16,-97.78,-69.28,67.9
0.27,-0.88,0.16,-97.78,-69.28,67.9
0.35,-1.16,-0.09,-82.96,-53.87,63.92
0.43,-1.36,-0.19,-56.41,-35.01,61.15
0.46,-1.36,-0.14,-19.01,-12.47,61.49
0.31,-1.16,0.02,27.27,14.8,64.22
0.11,-0.93,0.24,77.61,45.95,64.8
0.11,-0.93,0.24,77.61,45.95,64.8
-0.12,-0.61,0.44,127.66,76.35,62.27
-0.45,-0.17,0.62,174.46,101.26,58.63
-0.79,0.2,0.96,216.6,118.12,54.29
-1.22,0.69,1.66,249.73,125.46,50.89
-1.22,0.69,1.66,249.73,121.04,47.41
-1.41,1.32,1.97,249.73,121.04,47.41
-1.18,1.64,1.97,249.73,106.88,40.63
-0.92,1.66,1.87,249.07,83.9,34.3
-0.81,1.52,1.9,214.24,52.62,33.39
-0.68,1.33,1.77,162.92,17.93,37.48
-0.68,1.33,1.77,96.22,-17.13,43.53
-0.48,1.1,1.41,96.22,-17.13,43.53
-0.31,0.8,1.13,20.54,-52.08,48.98
-0.19,0.48,1.0,-57.12,-84.81,52.59
-0.06,0.21,0.87,-131.54,-112.1,54.15
0.12,-0.11,0.78,-199.21,-131.55,53.15
0.12,-0.11,0.78,-199.21,-131.55,53.15
0.37,-0.54,0.82,-250.26,-139.9,49.34
0.67,-1.13,0.72,-250.26,-133.3,43.8
0.8,-1.78,-0.04,-250.26,-115.03,39.31
0.78,-1.92,-0.69,-250.26,-97.27,38.81
0.75,-1.92,-0.66,-250.26,-80.69,43.47
0.75,-1.92,-0.66,-250.26,-80.69,43.47
0.55,-1.9,-0.1,-198.41,-57.28,50.17
0.3,-1.38,0.28,-140.18,-22.12,49.12
0.07,-1.05,0.5,-83.6,14.44,38.75
-0.11,-0.74,0.67,-26.48,37.98,29.4
-0.19,-0.44,0.59,25.9,55.38,23.89
-0.19,-0.44,0.59,25.9,55.38,23.89
-0.24,-0.21,0.68,70.37,70.12,18.48
-0.25,-0.05,0.97,107.03,78.34,12.72
-0.26,0.07,1.25,134.92,80.81,8.11
-0.26,0.18,1.45,153.49,79.65,5.82
-0.27,0.22,1.53,161.35,75.88,5.78
-0.27,0.22,1.53,161.35,75.88,5.78
-0.29,0.25,1.51,158.48,69.96,6.97
-0.29,0.26,1.49,145.73,62.78,7.4
-0.26,0.22,1.44,123.71,55.38,5.16
-0.22,0.08,1.37,93.69,48.12,0.0
-0.22,-0.12,1.36,59.64,40.67,-6.18
-0.22,-0.12,1.36,59.64,40.67,-6.18
-0.23,-0.34,1.32,26.97,33.3,-12.05
-0.22,-0.52,1.18,-0.12,27.83,-17.68
-0.2,-0.65,0.97,-19.97,24.71,-23.65
-0.17,-0.78,0.88,-31.7,22.23,-29.69
-0.13,-0.88,0.87,-35.15,20.67,-34.45
-0.13,-0.88,0.87,-35.15,20.67,-34.45
-0.14,-0.9,0.88,-31.56,19.84,-37.09
-0.19,-0.82,0.96,-22.94,18.64,-38.2
-0.28,-0.69,1.05,-11.28,16.95,-39.21
-0.34,-0.57,1.17,0.7,14.44,-41.35
-0.37,-0.45,1.26,10.51,10.84,-44.53
-0.37,-0.45,1.26,10.51,10.84,-44.53
-0.39,-0.33,1.3,16.54,5.98,-48.22
-0.39,-0.26,1.27,18.8,-0.18,-52.46
-0.33,-0.24,1.22,18.54,-7.36,-57.71
-0.2,-0.31,1.16,17.39,-14.94,-63.64
-0.1,-0.34,1.13,16.47,-22.21,-68.49
-0.1,-0.34,1.13,16.47,-22.21,-68.49
-0.04,-0.31,1.13,15.57,-29.07,-71.96
0.01,-0.28,1.13,13.98,-34.73,-74.99
0.09,-0.32,1.1,11.21,-38.06,-78.32
0.14,-0.41,1.0,7.94,-38.54,-81.79
0.15,-0.52,0.84,6.51,-36.01,-85.15
0.15,-0.52,0.84,6.51,-36.01,-85.15
0.12,-0.59,0.66,9.02,-31.0,-88.11
0.09,-0.58,0.52,16.81,-24.48,-90.54
0.04,-0.48,0.49,30.22,-17.13,-92.48
-0.05,-0.28,0.56,48.28,-9.71,-93.7
-0.19,-0.01,0.66,68.66,-3.51,-93.75
-0.19,-0.01,0.66,68.66,-3.51,-93.75
-0.34,0.29,0.75,89.14,0.9,-93.12
-0.49,0.61,0.95,107.38,2.51,-92.38
-0.71,1.01,1.43,119.56,-0.54,-91.72
-0.81,1.29,1.56,119.63,-7.0,-92.86
-0.78,1.52,1.24,105.92,-16.16,-95.63
-0.78,1.52,1.24,105.92,-16.16,-95.63
-0.62,1.63,0.9,82.77,-28.91,-99.35
-0.29,1.53,0.76,52.94,-46.23,-104.4
0.12,1.24,0.81,15.23,-65.85,-110.16
0.47,0.92,0.86,-31.62,-81.85,-115.62
0.7,0.64,0.8,-84.83,-90.14,-120.18
0.7,0.64,0.8,-84.83,-90.14,-120.18
0.78,0.38,0.79,-136.88,-90.03,-123.7
0.84,0.04,0.93,-180.12,-80.7,-127.08
0.72,-0.47,1.04,-206.09,-60.76,-130.94
0.41,-0.72,0.8,-204.72,-36.03,-134.2
0.27,-0.93,0.36,-182.8,-9.53,-138.61
0.27,-0.93,0.36,-182.8,-9.53,-138.61
0.16,-1.02,0.18,-150.0,16.01,-142.32
-0.0,-0.6,0.45,-104.83,35.66,-140.11
-0.19,-0.05,0.84,-52.0,50.68,-133.37
-0.46,0.46,1.11,-0.86,60.62,-125.65
-0.71,0.83,1.32,41.36,62.35,-120.99
-0.71,0.83,1.32,41.36,62.35,-120.99
-0.74,1.0,1.34,72.89,55.75,-121.52
-0.69,1.22,1.36,97.98,45.35,-120.84
-0.66,1.5,1.58,117.4,32.42,-117.99
-0.58,1.7,1.6,125.46,15.11,-114.37
-0.39,1.79,1.36,119.21,-7.62,-110.16
-0.39,1.79,1.36,119.21,-7.62,-110.16
-0.17,1.76,1.19,100.87,-33.64,-104.5
0.09,1.63,1.19,71.41,-58.55,-98.16
0.32,1.41,1.15,30.1,-79.22,-92.01
0.45,1.11,0.98,-19.72,-93.99,-86.12
0.5,0.77,0.79,-72.27,-102.59,-81.39
0.5,0.77,0.79,-72.27,-102.59,-81.39
0.5,0.44,0.73,-122.23,-106.05,-78.27
0.52,0.16,0.69,-166.28,-105.18,-77.03
0.54,-0.13,0.79,-200.22,-100.94,-77.68
0.56,-0.5,0.98,-217.65,-93.08,-79.84
0.63,-0.82,0.7,-217.43,-79.11,-82.88
0.63,-0.82,0.7,-217.43,-79.11,-82.88
0.63,-1.07,0.3,-204.55,-59.43,-86.19
0.64,-1.26,0.01,-178.09,-36.63,-89.41
0.51,-1.13,0.16,-137.13,-15.64,-90.51
0.27,-0.73,0.5,-85.55,3.42,-89.12
0.03,-0.33,0.8,-32.53,19.24,-87.64
0.03,-0.33,0.8,-32.53,19.24,-87.64
-0.14,0.04,0.93,14.43,30.25,-87.15
-0.25,0.45,1.07,52.14,36.3,-87.83
-0.3,0.85,1.06,75.57,36.77,-90.64
-0.22,0.95,1.02,88.22,29.34,-93.98
-0.02,0.81,0.89,98.11,23.2,-97.65
-0.02,0.81,0.89,98.11,23.2,-97.65
0.15,0.66,1.06,108.85,17.87,-99.11
0.19,0.66,1.35,115.9,14.09,-97.17
0.19,0.77,1.33,112.64,9.57,-92.53
0.16,0.85,0.99,98.12,3.47,-87.06
0.14,0.77,0.77,78.2,-2.73,-84.39
0.14,0.77,0.77,78.2,-2.73,-84.39
0.24,0.54,0.82,56.37,-7.04,-86.73
0.35,0.4,0.83,30.74,-7.46,-90.99
0.33,0.27,0.81,2.2,-5.46,-93.91
0.2,0.03,0.92,-21.32,-4.61,-94.4
0.19,-0.15,0.92,-32.93,-4.03,-92.63
0.19,-0.15,0.92,-32.93,-4.03,-92.63
0.2,-0.24,0.69,-33.4,2.02,-90.44
0.07,-0.2,0.58,-23.82,9.93,-88.45
-0.14,0.03,0.71,-4.59,15.8,-85.47
-0.3,0.34,0.95,20.39,19.19,-81.64
-0.39,0.68,1.22,44.9,19.54,-77.73
-0.39,0.68,1.22,44.9,19.54,-77.73
-0.38,0.98,1.29,62.22,15.87,-73.99
-0.3,1.21,1.15,68.26,7.81,-70.18
-0.17,1.34,1.05,62.93,-3.69,-65.58
-0.05,1.36,1.07,48.01,-16.84,-59.33
0.07,1.25,1.1,25.62,-28.95,-52.27
0.07,1.25,1.1,25.62,-28.95,-52.27
0.18,1.05,1.05,-1.88,-37.76,-47.21
0.24,0.81,0.96,-31.79,-42.88,-45.1
0.24,0.55,0.85,-60.15,-44.68,-43.87
0.22,0.33,0.81,-82.51,-43.77,-42.06
0.25,0.16,0.77,-96.54,-39.32,-40.19
0.25,0.16,0.77,-96.54,-39.32,-40.19
0.27,0.05,0.63,-101.69,-30.17,-38.73
0.23,0.03,0.48,-97.03,-18.13,-37.5
0.15,0.08,0.38,-82.02,-5.95,-35.53
0.0,0.28,0.43,-56.62,5.37,-31.64
-0.13,0.53,0.58,-23.44,15.48,-26.46
-0.13,0.53,0.58,-23.44,15.48,-26.46
-0.2,0.79,0.75,12.39,23.41,-20.66
-0.25,1.1,0.98,46.36,29.01,-14.06
-0.28,1.4,1.18,74.29,31.96,-6.95
-0.25,1.58,1.1,91.95,31.94,0.22
-0.16,1.66,0.88,98.89,28.94,7.37
-0.16,1.66,0.88,98.89,28.94,7.37
-0.02,1.61,0.82,97.8,23.54,14.36
0.15,1.47,0.95,90.09,17.98,21.11
0.25,1.33,1.05,76.16,15.35,27.47
0.23,1.21,1.02,58.77,16.44,33.02
0.14,1.05,0.95,43.12,20.04,37.4
0.14,1.05,0.95,43.12,20.04,37.4
0.08,0.88,0.9,33.67,24.86,41.03
0.09,0.75,0.83,32.22,30.99,44.81
0.13,0.73,0.78,37.66,38.84,48.99
0.22,0.85,0.88,47.68,47.66,53.23
0.17,0.95,0.89,56.48,56.6,58.8
0.17,0.95,0.89,56.48,56.6,58.8
0.12,1.0,0.95,65.67,62.66,65.65
0.04,0.99,0.94,76.41,69.03,72.54
-0.12,1.04,1.03,90.45,74.62,80.38
-0.32,1.2,1.19,105.63,77.81,88.8
-0.48,1.46,1.34,117.86,76.31,97.01
-0.48,1.46,1.34,117.86,76.31,97.01
-0.56,1.69,1.42,123.17,69.12,104.66
-0.54,1.8,1.41,118.1,56.26,111.6
-0.44,1.77,1.34,101.3,37.82,118.15
-0.27,1.59,1.27,72.92,15.28,123.49
-0.07,1.33,1.17,34.7,-7.17,126.82
-0.07,1.33,1.17,34.7,-7.17,126.82
0.12,1.03,1.05,-9.62,-26.35,128.3
0.24,0.71,0.98,-55.07,-41.22,128.64
0.25,0.41,0.93,-97.66,-51.73,127.83
0.22,0.1,0.91,-134.07,-58.84,125.36
0.27,-0.18,0.92,-160.8,-63.83,121.99
0.27,-0.18,0.92,-160.8,-63.83,121.99
0.37,-0.36,0.78,-176.29,-62.89,118.7
0.37,-0.51,0.62,-180.02,-54.39,115.68
0.32,-0.75,0.54,-173.75,-42.98,112.58
0.28,-0.95,0.48,-159.84,-30.88,109.7
0.25,-0.9,0.34,-135.59,-18.77,108.31
0.25,-0.9,0.34,-135.59,-18.77,108.31
0.15,-0.62,0.39,-101.06,-8.23,109.65
0.02,-0.35,0.66,-61.69,0.02,113.25
-0.14,-0.1,0.92,-23.51,5.83,117.68
-0.29,0.21,1.19,7.41,9.19,119.95
-0.33,0.33,1.22,25.5,8.93,118.4
-0.33,0.33,1.22,25.5,8.93,118.4
-0.25,0.38,1.17,35.63,6.41,114.75
-0.18,0.33,1.16,39.05,4.36,110.48
-0.12,0.23,1.23,36.51,1.3,106.82
-0.09,0.19,1.2,27.2,-1.45,103.86
-0.09,0.15,1.08,11.81,-3.71,101.51
-0.09,0.15,1.08,11.81,-3.71,101.51
-0.11,0.03,0.99,-7.14,-5.15,99.43
-0.12,-0.15,0.96,-26.75,-5.75,97.68
-0.1,-0.33,0.94,-44.94,-5.9,96.45
-0.09,-0.49,0.91,-60.35,-5.31,95.67
-0.11,-0.62,0.83,-71.68,-3.82,94.73
-0.11,-0.62,0.83,-71.68,-3.82,94.73
-0.12,-0.74,0.72,-77.29,-1.28,92.91
-0.13,-0.85,0.64,-75.86,2.25,90.14
-0.13,-0.91,0.62,-67.19,6.05,87.2
-0.11,-0.87,0.7,-52.52,9.57,84.72
-0.07,-0.72,0.83,-34.55,12.78,82.64
-0.07,-0.72,0.83,-34.55,12.78,82.64
-0.04,-0.56,0.95,-16.63,15.61,80.5
-0.01,-0.46,1.03,-1.24,18.02,78.3
-0.01,-0.4,1.08,10.33,20.22,76.4
-0.03,-0.39,1.09,17.68,22.04,74.78
-0.05,-0.41,1.08,21.07,23.17,72.96
-0.05,-0.41,1.08,21.07,23.17,72.96
-0.07,-0.43,1.05,21.25,23.6,70.83
-0.06,-0.46,1.01,19.19,23.4,68.4
-0.03,-0.5,0.96,16.22,22.78,65.89
-0.02,-0.53,0.91,13.74,22.06,63.63
-0.01,-0.54,0.88,12.59,21.31,61.63
-0.01,-0.54,0.88,12.59,21.31,61.63
-0.03,-0.53,0.89,12.87,20.6,59.6
-0.06,-0.49,0.91,13.94,19.87,56.97
-0.06,-0.45,0.91,15.07,19.05,53.49
-0.05,-0.42,0.89,16.08,18.24,49.5
-0.04,-0.41,0.88,17.24,17.59,45.53
-0.04,-0.41,0.88,17.24,17.59,45.53
-0.02,-0.39,0.89,18.83,17.25,41.92
0.0,-0.36,0.9,20.85,17.33,38.98
0.0,-0.31,0.92,23.16,17.73,37.11
-0.02,-0.26,0.95,25.33,18.3,36.43
-0.06,-0.21,0.98,26.73,18.81,36.27
-0.06,-0.21,0.98,26.73,18.81,36.27
-0.09,-0.17,1.01,27.03,19.05,35.48
-0.09,-0.18,1.02,26.13,18.95,33.6
-0.06,-0.19,1.02,24.19,18.57,31.27
-0.04,-0.21,1.01,21.7,17.98,29.06
-0.02,-0.24,1.0,19.42,17.34,26.75
-0.02,-0.24,1.0,19.42,17.34,26.75
-0.0,-0.24,0.98,17.88,16.79,24.75
-0.01,-0.2,0.98,17.1,16.21,24.07
-0.05,-0.16,0.99,16.84,15.27,24.04
-0.06,-0.15,0.99,16.97,13.87,23.27
-0.05,-0.17,0.97,17.77,12.32,21.61
-0.05,-0.17,0.97,17.77,12.32,21.61
-0.04,-0.17,0.96,19.25,10.63,19.95
-0.05,-0.11,0.98,21.19,8.75,18.14
-0.04,-0.06,1.02,22.73,6.62,14.9
-0.0,-0.06,1.04,23.24,4.49,10.1
0.08,-0.06,1.01,22.53,2.73,5.21
0.08,-0.06,1.01,22.53,2.73,5.21
0.14,-0.04,0.98,20.93,1.47,2.61
0.12,0.0,0.98,19.1,0.64,2.93
0.04,0.03,1.0,17.13,-0.03,3.25
0.05,-0.01,0.97,15.0,-0.58,1.17
0.07,-0.04,0.9,13.46,-0.63,-0.58
0.07,-0.04,0.9,13.46,-0.63,-0.58
0.04,-0.02,0.92,13.4,-0.42,-1.19
0.06,0.02,0.98,14.43,0.3,-2.1
-0.02,0.15,1.02,14.44,1.4,-2.04
-0.02,0.13,0.98,12.59,1.16,-3.42
0.05,0.1,0.93,12.01,1.7,-5.59
0.05,0.1,0.93,12.01,1.7,-5.59
0.08,0.04,0.94,12.04,2.77,-6.25
0.07,0.07,0.98,12.94,3.54,-5.03
0.01,0.15,1.04,13.1,4.19,-4.44
-0.0,0.17,1.03,11.98,4.15,-5.79
0.03,0.14,1.0,10.27,4.08,-8.01
0.03,0.14,1.0,10.27,4.08,-8.01
