ax,ay,az,gx,gy,gz
-0.1,0.49,0.82,-2.53,-1.48,-4.58
-0.1,0.5,0.83,-1.82,-1.23,-4.47
-0.1,0.5,0.84,-1.19,-0.97,-4.34
-0.11,0.52,0.85,-0.71,-0.75,-4.24
-0.12,0.54,0.86,-0.55,-0.59,-4.16
-0.12,0.54,0.86,-0.55,-0.59,-4.16
-0.12,0.55,0.87,-0.91,-0.54,-4.15
-0.12,0.56,0.88,-1.95,-0.53,-4.18
-0.11,0.55,0.88,-3.62,-0.57,-4.24
-0.11,0.54,0.87,-5.76,-0.65,-4.3
-0.11,0.52,0.86,-8.03,-0.85,-4.3
-0.11,0.52,0.86,-8.03,-0.85,-4.3
-0.11,0.5,0.85,-10.1,-1.21,-4.21
-0.11,0.49,0.84,-11.77,-1.72,-3.98
-0.11,0.47,0.83,-12.92,-2.36,-3.76
-0.1,0.46,0.83,-13.44,-3.04,-3.55
-0.09,0.45,0.83,-13.27,-3.65,-3.37
-0.09,0.45,0.83,-13.27,-3.65,-3.37
-0.08,0.45,0.83,-12.44,-4.03,-3.21
-0.07,0.45,0.83,-11.03,-4.13,-3.08
-0.07,0.45,0.83,-9.19,-3.93,-3.0
-0.08,0.46,0.84,-7.08,-3.45,-3.01
-0.08,0.47,0.84,-4.82,-2.75,-3.06
-0.08,0.47,0.84,-4.82,-2.75,-3.06
-0.09,0.48,0.85,-2.52,-1.94,-3.15
-0.1,0.49,0.86,-0.4,-1.18,-3.23
-0.11,0.51,0.86,1.34,-0.52,-3.29
-0.11,0.53,0.87,2.56,-0.09,-3.28
-0.12,0.53,0.88,3.18,0.07,-3.24
-0.12,0.53,0.88,3.18,0.07,-3.24
-0.12,0.53,0.88,3.21,-0.03,-3.16
-0.12,0.53,0.88,2.75,-0.36,-3.04
-0.12,0.52,0.87,1.91,-0.95,-2.9
-0.11,0.51,0.87,0.92,-1.78,-2.74
-0.11,0.49,0.86,-0.09,-2.76,-2.54
-0.11,0.49,0.86,-0.09,-2.76,-2.54
-0.1,0.48,0.86,-1.02,-3.78,-2.34
-0.09,0.47,0.85,-1.83,-4.75,-2.2
-0.09,0.46,0.85,-2.43,-5.54,-2.17
-0.08,0.45,0.84,-2.74,-6.09,-2.25
-0.07,0.45,0.84,-2.79,-6.41,-2.41
-0.07,0.45,0.84,-2.79,-6.41,-2.41
-0.07,0.45,0.83,-2.63,-6.48,-2.61
-0.06,0.45,0.83,-2.29,-6.24,-2.87
-0.06,0.45,0.82,-1.76,-5.69,-3.15
-0.06,0.45,0.82,-1.1,-4.94,-3.49
-0.07,0.46,0.82,-0.34,-4.13,-3.79
-0.07,0.46,0.82,-0.34,-4.13,-3.79
-0.08,0.48,0.83,0.34,-3.38,-4.05
-0.09,0.49,0.84,0.8,-2.83,-4.29
-0.09,0.5,0.84,0.93,-2.52,-4.47
-0.09,0.5,0.85,0.78,-2.38,-4.6
-0.09,0.5,0.85,0.43,-2.39,-4.72
-0.09,0.5,0.85,0.43,-2.39,-4.72
-0.09,0.5,0.85,-0.08,-2.55,-4.81
-0.09,0.5,0.85,-0.73,-2.81,-4.89
-0.08,0.49,0.84,-1.45,-3.11,-4.96
-0.08,0.49,0.84,-2.12,-3.39,-5.01
-0.08,0.48,0.83,-2.66,-3.58,-5.06
-0.08,0.48,0.83,-2.66,-3.58,-5.06
-0.08,0.48,0.83,-2.99,-3.63,-5.1
-0.08,0.48,0.83,-3.12,-3.56,-5.13
-0.08,0.48,0.84,-3.09,-3.38,-5.18
-0.08,0.49,0.84,-2.99,-3.08,-5.21
-0.08,0.48,0.84,-2.85,-2.66,-5.25
-0.08,0.48,0.84,-2.85,-2.66,-5.25
-0.09,0.48,0.84,-2.66,-2.26,-5.3
-0.09,0.48,0.84,-2.36,-1.94,-5.4
-0.09,0.49,0.84,-1.99,-1.71,-5.48
-0.1,0.49,0.84,-1.64,-1.64,-5.53
-0.1,0.5,0.84,-1.42,-1.68,-5.59
-0.1,0.5,0.84,-1.42,-1.68,-5.59
-0.09,0.5,0.84,-1.29,-1.82,-5.66
-0.09,0.5,0.84,-1.24,-2.0,-5.76
-0.09,0.5,0.83,-1.25,-2.2,-5.78
-0.09,0.5,0.83,-1.33,-2.36,-5.77
-0.09,0.49,0.83,-1.47,-2.43,-5.76
-0.09,0.49,0.83,-1.47,-2.43,-5.76
-0.08,0.49,0.83,-1.6,-2.41,-5.68
-0.08,0.48,0.83,-1.64,-2.26,-5.58
-0.08,0.48,0.84,-1.54,-1.97,-5.51
-0.09,0.49,0.84,-1.37,-1.59,-5.49
-0.1,0.49,0.85,-1.16,-1.15,-5.52
-0.1,0.49,0.85,-1.16,-1.15,-5.52
-0.1,0.49,0.85,-0.98,-0.68,-5.56
-0.1,0.5,0.85,-0.85,-0.27,-5.59
-0.11,0.51,0.85,-0.79,0.04,-5.56
-0.11,0.51,0.85,-0.81,0.2,-5.51
-0.12,0.5,0.85,-0.92,0.2,-5.4
-0.12,0.5,0.85,-0.92,0.2,-5.4
-0.11,0.5,0.84,-1.08,-0.03,-5.24
-0.11,0.49,0.84,-1.24,-0.38,-5.04
-0.11,0.49,0.84,-1.31,-0.76,-4.84
-0.1,0.49,0.84,-1.31,-1.14,-4.64
-0.1,0.49,0.84,-1.27,-1.49,-4.48
-0.1,0.49,0.84,-1.27,-1.49,-4.48
-0.1,0.49,0.84,-1.28,-1.75,-4.31
-0.09,0.49,0.83,-1.39,-2.01,-4.18
-0.08,0.49,0.83,-1.57,-2.27,-4.09
-0.08,0.48,0.82,-1.8,-2.42,-4.05
-0.07,0.47,0.82,-2.05,-2.44,-4.11
-0.07,0.47,0.82,-2.05,-2.44,-4.11
-0.07,0.47,0.82,-2.25,-2.29,-4.25
-0.07,0.47,0.81,-2.35,-1.94,-4.46
-0.07,0.47,0.81,-2.35,-1.43,-4.71
-0.07,0.48,0.82,-2.34,-0.86,-4.95
-0.08,0.48,0.82,-2.39,-0.28,-5.13
-0.08,0.48,0.82,-2.39,-0.28,-5.13
-0.08,0.48,0.83,-2.47,0.31,-5.33
-0.08,0.48,0.83,-2.56,0.92,-5.55
-0.09,0.48,0.84,-2.56,1.47,-5.8
-0.09,0.49,0.84,-2.53,1.95,-6.0
-0.1,0.49,0.85,-2.49,2.32,-6.2
-0.1,0.49,0.85,-2.49,2.32,-6.2
-0.1,0.49,0.85,-2.45,2.52,-6.41
-0.1,0.5,0.85,-2.38,2.58,-6.62
-0.09,0.5,0.86,-2.34,2.5,-6.81
-0.09,0.51,0.85,-2.36,2.34,-6.95
-0.09,0.51,0.85,-2.5,2.08,-7.01
-0.09,0.52,0.85,-2.5,2.08,-7.01
-0.08,0.51,0.85,-2.78,1.75,-7.06
-0.07,0.51,0.85,-3.08,1.38,-7.1
-0.06,0.52,0.84,-3.33,0.99,-7.11
-0.05,0.52,0.83,-3.53,0.64,-7.14
-0.05,0.52,0.83,-3.66,0.35,-7.23
-0.03,0.53,0.82,-3.66,0.35,-7.23
0.0,0.54,0.81,-3.62,0.13,-7.37
0.03,0.55,0.81,-3.38,0.07,-7.63
0.06,0.57,0.8,-2.96,0.23,-7.98
0.08,0.6,0.8,-2.36,0.65,-8.39
0.08,0.6,0.8,-2.36,0.65,-8.39
0.11,0.64,0.8,-1.51,1.3,-8.96
0.14,0.68,0.82,-0.47,2.18,-9.65
0.15,0.72,0.82,0.59,3.27,-10.3
0.14,0.77,0.82,1.57,4.52,-10.81
0.13,0.81,0.8,2.49,5.63,-11.16
0.13,0.81,0.8,2.49,5.63,-11.16
0.12,0.86,0.78,3.46,6.36,-11.32
0.13,0.91,0.75,4.52,6.46,-11.18
0.17,0.97,0.73,5.63,5.92,-10.63
0.21,1.02,0.71,6.67,5.11,-9.55
0.22,1.07,0.68,7.53,4.33,-7.94
0.22,1.07,0.68,7.53,4.33,-7.94
0.22,1.12,0.66,8.02,3.65,-5.86
0.21,1.17,0.64,7.99,3.05,-3.3
0.21,1.2,0.61,7.46,2.47,-0.28
0.21,1.23,0.58,6.45,1.81,3.1
0.18,1.25,0.54,4.99,0.96,6.8
0.18,1.25,0.54,4.99,0.96,6.8
0.15,1.27,0.5,3.17,-0.35,10.83
0.13,1.3,0.45,1.24,-2.38,15.13
0.14,1.31,0.41,-0.65,-5.26,19.5
0.17,1.3,0.37,-2.54,-8.6,23.83
0.21,1.27,0.37,-4.4,-11.69,28.17
0.21,1.27,0.37,-4.4,-11.69,28.17
0.24,1.24,0.37,-6.0,-13.68,32.56
0.22,1.22,0.38,-7.06,-14.19,37.08
0.19,1.21,0.37,-7.47,-13.47,41.91
0.17,1.2,0.39,-7.51,-11.82,47.06
0.18,1.21,0.46,-7.58,-9.12,52.35
0.18,1.21,0.46,-7.58,-9.12,52.35
0.17,1.21,0.56,-8.08,-4.89,57.57
0.12,1.17,0.63,-9.41,1.1,62.46
0.05,1.09,0.65,-11.81,8.3,66.93
-0.02,0.98,0.67,-14.84,15.76,71.23
-0.09,0.87,0.71,-17.64,22.62,75.72
-0.09,0.87,0.71,-17.64,22.62,75.72
-0.14,0.78,0.73,-19.56,28.37,80.38
-0.17,0.71,0.75,-20.46,32.72,84.88
-0.18,0.65,0.79,-20.51,35.71,88.99
-0.19,0.58,0.83,-20.05,37.76,92.59
-0.23,0.52,0.87,-19.44,39.14,95.75
-0.23,0.52,0.87,-19.44,39.14,95.75
-0.27,0.46,0.91,-18.96,39.96,98.43
-0.32,0.4,0.97,-18.74,40.45,100.55
-0.37,0.34,1.03,-18.79,40.91,102.12
-0.4,0.28,1.06,-19.38,41.48,103.22
-0.43,0.24,1.11,-20.72,42.12,103.74
-0.43,0.24,1.11,-20.72,42.12,103.74
-0.44,0.2,1.16,-22.74,42.93,103.48
-0.46,0.17,1.18,-25.29,44.23,102.25
-0.47,0.13,1.17,-28.43,45.77,99.94
-0.47,0.08,1.15,-32.01,47.13,96.71
-0.45,0.02,1.13,-35.56,48.07,92.86
-0.45,0.02,1.13,-35.56,48.07,92.86
-0.44,-0.06,1.11,-38.51,48.62,88.81
-0.44,-0.13,1.1,-40.47,48.78,84.88
-0.45,-0.18,1.08,-41.35,48.46,81.21
-0.47,-0.21,1.07,-40.94,47.66,77.65
-0.48,-0.23,1.06,-39.22,46.46,73.93
-0.48,-0.23,1.06,-39.22,46.46,73.93
-0.48,-0.25,1.05,-36.39,44.89,70.0
-0.5,-0.21,1.09,-32.92,43.07,65.89
-0.46,-0.19,1.1,-29.57,41.4,60.91
-0.48,-0.18,1.1,-26.37,39.64,56.21
-0.5,-0.17,1.08,-22.39,38.13,51.37
-0.5,-0.17,1.08,-22.39,38.13,51.37
-0.49,-0.11,1.09,-18.78,36.2,46.67
-0.45,-0.09,1.08,-16.27,33.69,42.14
-0.44,-0.08,1.08,-13.81,31.34,38.28
-0.42,-0.08,1.06,-11.54,29.26,34.71
-0.39,-0.07,1.04,-9.64,27.17,31.39
-0.39,-0.07,1.04,-9.64,27.17,31.39
-0.38,-0.07,1.02,-7.46,25.12,28.62
-0.37,-0.06,1.02,-4.69,23.34,26.27
-0.35,-0.03,1.01,-1.81,21.5,24.18
-0.33,-0.01,1.01,0.77,19.6,22.36
-0.32,-0.01,1.0,3.01,17.58,20.76
-0.32,-0.01,1.0,3.01,17.58,20.76
-0.3,0.0,1.0,4.99,15.37,19.32
-0.29,0.02,1.01,6.64,13.03,18.04
-0.28,0.05,1.02,7.77,10.77,16.97
-0.28,0.05,1.02,8.09,8.58,15.94
-0.27,0.04,1.01,7.67,6.41,14.78
-0.27,0.04,1.01,7.67,6.41,14.78
-0.26,0.02,1.0,6.78,4.21,13.39
-0.24,-0.0,0.99,5.82,1.96,11.85
-0.21,-0.02,0.98,5.34,-0.2,10.33
-0.18,-0.03,0.98,5.37,-1.99,9.02
-0.17,-0.05,0.99,5.57,-3.34,7.82
-0.17,-0.05,0.99,5.57,-3.34,7.82
-0.17,-0.08,1.0,5.87,-4.24,6.51
-0.17,-0.11,1.0,6.51,-4.78,5.05
-0.16,-0.13,1.01,7.78,-5.06,3.39
-0.16,-0.15,1.04,9.49,-5.16,1.66
-0.16,-0.17,1.05,11.49,-5.23,-0.01
-0.16,-0.17,1.05,11.49,-5.23,-0.01
-0.16,-0.18,1.07,13.78,-5.51,-1.75
-0.14,-0.18,1.12,15.91,-5.97,-3.73
-0.14,-0.17,1.14,16.78,-6.73,-5.89
-0.12,-0.2,1.14,17.02,-7.78,-8.72
-0.12,-0.25,1.16,17.76,-8.67,-12.1
-0.12,-0.25,1.16,17.76,-8.67,-12.1
-0.14,-0.28,1.19,18.78,-9.4,-15.64
-0.14,-0.31,1.21,19.87,-10.28,-19.49
-0.14,-0.33,1.23,21.41,-11.27,-23.58
-0.13,-0.35,1.27,23.55,-12.18,-27.85
-0.14,-0.37,1.32,26.07,-12.98,-32.04
-0.14,-0.37,1.32,26.07,-12.98,-32.04
-0.16,-0.38,1.37,28.6,-13.6,-35.94
-0.2,-0.41,1.4,30.81,-14.11,-39.57
-0.22,-0.44,1.43,32.62,-14.67,-42.77
-0.24,-0.47,1.45,33.95,-15.44,-45.47
-0.26,-0.49,1.46,34.9,-16.61,-47.63
-0.26,-0.49,1.46,34.9,-16.61,-47.63
-0.31,-0.5,1.46,35.69,-18.21,-49.4
-0.38,-0.5,1.44,36.5,-20.44,-50.97
-0.46,-0.47,1.4,37.31,-23.43,-52.68
-0.53,-0.41,1.36,37.76,-27.59,-55.15
-0.52,-0.34,1.31,37.48,-33.24,-58.95
-0.52,-0.34,1.31,37.48,-33.24,-58.95
-0.44,-0.25,1.3,36.21,-40.15,-64.11
-0.33,-0.16,1.31,33.39,-47.67,-70.31
-0.23,-0.09,1.3,28.52,-55.04,-76.85
-0.16,-0.03,1.26,21.9,-61.79,-82.86
-0.12,0.03,1.24,13.88,-67.82,-87.88
-0.12,0.03,1.24,13.88,-67.82,-87.88
-0.12,0.07,1.23,4.81,-73.3,-91.95
-0.14,0.1,1.21,-4.85,-78.12,-95.26
-0.16,0.11,1.19,-14.81,-82.25,-97.85
-0.19,0.12,1.15,-25.02,-85.91,-99.87
-0.22,0.13,1.09,-35.14,-89.56,-101.49
-0.22,0.13,1.09,-35.14,-89.56,-101.49
-0.23,0.12,1.02,-44.29,-93.42,-102.96
-0.22,0.11,0.96,-51.36,-97.42,-104.36
-0.19,0.1,0.91,-55.83,-101.16,-105.38
-0.19,0.12,0.87,-57.5,-104.55,-105.61
-0.2,0.18,0.84,-56.42,-107.21,-105.13
-0.2,0.18,0.84,-56.42,-107.21,-105.13
-0.23,0.27,0.81,-52.61,-107.96,-104.72
-0.25,0.37,0.79,-45.7,-106.25,-105.22
-0.26,0.48,0.8,-36.06,-102.14,-106.87
-0.28,0.61,0.84,-24.8,-95.72,-109.56
-0.32,0.75,0.88,-13.2,-87.17,-112.99
-0.32,0.75,0.88,-13.2,-87.17,-112.99
-0.37,0.88,0.9,-2.47,-77.09,-116.49
-0.45,0.99,0.87,6.58,-66.35,-119.3
-0.54,1.11,0.78,13.5,-56.17,-121.09
-0.62,1.22,0.71,18.12,-48.19,-121.94
-0.67,1.3,0.63,19.82,-43.43,-122.16
-0.67,1.3,0.63,19.82,-43.43,-122.16
-0.66,1.36,0.56,18.2,-42.16,-121.93
-0.62,1.4,0.52,13.58,-43.91,-121.28
-0.56,1.42,0.52,6.8,-47.87,-120.36
-0.47,1.41,0.53,-1.39,-52.4,-119.33
-0.4,1.39,0.51,-10.35,-56.21,-118.07
-0.4,1.39,0.51,-10.35,-56.21,-118.07
-0.34,1.36,0.47,-19.39,-58.84,-116.47
-0.3,1.31,0.41,-27.79,-60.22,-114.53
-0.27,1.26,0.36,-34.89,-60.5,-112.31
-0.25,1.22,0.34,-40.41,-60.02,-109.78
-0.22,1.17,0.35,-44.46,-58.84,-107.01
-0.22,1.17,0.35,-44.46,-58.84,-107.01
-0.2,1.13,0.35,-47.27,-56.7,-104.08
-0.19,1.08,0.36,-48.91,-53.61,-101.08
-0.17,1.03,0.37,-49.23,-49.84,-98.02
-0.15,0.98,0.38,-48.12,-45.7,-94.97
-0.14,0.94,0.38,-45.61,-41.35,-91.99
-0.14,0.94,0.38,-45.61,-41.35,-91.99
-0.14,0.9,0.39,-41.96,-37.07,-89.41
-0.14,0.87,0.41,-37.39,-33.14,-87.64
-0.14,0.84,0.43,-32.11,-29.84,-86.87
-0.12,0.83,0.47,-26.28,-27.17,-86.95
-0.12,0.85,0.54,-20.15,-25.02,-87.39
-0.12,0.85,0.54,-20.15,-25.02,-87.39
-0.13,0.91,0.61,-14.06,-22.96,-87.69
-0.15,1.01,0.67,-8.49,-20.79,-87.51
-0.18,1.09,0.69,-4.17,-18.84,-86.8
-0.19,1.15,0.67,-2.02,-17.71,-85.53
-0.19,1.17,0.64,-2.48,-17.77,-83.65
-0.19,1.17,0.64,-2.48,-17.77,-83.65
-0.16,1.17,0.64,-5.5,-19.03,-81.01
-0.13,1.17,0.64,-11.25,-21.31,-77.55
-0.07,1.15,0.65,-19.36,-24.26,-73.94
-0.01,1.05,0.63,-28.89,-27.15,-70.06
0.03,0.93,0.65,-37.5,-29.49,-65.38
0.03,0.93,0.65,-37.5,-29.49,-65.38
0.07,0.83,0.67,-44.04,-30.51,-60.18
0.06,0.75,0.67,-48.53,-30.05,-54.48
0.03,0.73,0.67,-51.23,-28.59,-48.66
-0.01,0.71,0.63,-52.01,-26.73,-43.57
-0.01,0.66,0.66,-50.58,-24.83,-39.46
-0.01,0.66,0.66,-50.58,-24.83,-39.46
-0.02,0.65,0.68,-47.36,-22.68,-35.17
-0.01,0.66,0.7,-43.31,-20.93,-30.85
0.01,0.71,0.74,-38.51,-19.71,-26.86
0.02,0.77,0.78,-34.09,-18.69,-24.04
0.06,0.76,0.81,-31.05,-17.8,-23.06
0.06,0.76,0.81,-31.05,-17.8,-23.06
0.09,0.71,0.83,-29.32,-16.48,-22.22
0.07,0.64,0.83,-27.73,-14.33,-19.65
0.04,0.63,0.8,-25.48,-11.57,-15.73
0.01,0.64,0.78,-21.88,-9.14,-11.37
-0.03,0.69,0.79,-16.72,-7.25,-7.43
-0.03,0.69,0.79,-16.72,-7.25,-7.43
-0.05,0.75,0.79,-11.69,-6.17,-4.9
-0.06,0.77,0.76,-7.84,-6.4,-3.42
-0.06,0.79,0.72,-5.2,-7.62,-1.85
-0.06,0.82,0.7,-3.48,-9.75,0.04
0.01,0.83,0.7,-2.24,-12.43,1.66
0.01,0.83,0.7,-2.24,-12.43,1.66
0.08,0.89,0.74,-1.55,-14.62,3.45
0.12,0.91,0.75,-2.45,-15.55,5.71
0.12,0.94,0.73,-4.46,-14.96,8.85
0.09,0.91,0.67,-6.56,-12.76,11.96
0.06,0.83,0.61,-7.31,-9.54,14.5
0.06,0.83,0.61,-7.31,-9.54,14.5
0.06,0.8,0.53,-6.1,-6.04,16.98
0.07,0.85,0.47,-3.04,-3.25,20.02
0.09,0.96,0.48,1.34,-1.71,23.34
0.14,1.07,0.51,5.95,-1.24,26.07
0.2,1.17,0.56,9.66,-1.11,28.1
0.2,1.17,0.56,9.66,-1.11,28.1
0.25,1.24,0.59,11.73,-0.55,30.33
0.27,1.28,0.62,12.5,0.66,32.94
0.29,1.29,0.64,12.04,2.8,35.47
0.29,1.29,0.65,10.31,5.85,37.78
0.25,1.28,0.65,7.81,9.45,40.29
0.25,1.28,0.65,7.81,9.45,40.29
0.2,1.28,0.64,5.42,13.37,43.3
0.12,1.28,0.63,3.55,17.27,46.16
0.05,1.28,0.6,2.1,20.44,47.92
0.03,1.26,0.57,1.22,22.17,48.08
0.02,1.21,0.57,1.35,22.55,47.35
0.02,1.21,0.57,1.35,22.55,47.35
0.01,1.16,0.61,2.76,22.23,46.77
-0.01,1.13,0.62,5.36,21.86,46.81
-0.05,1.11,0.61,9.03,21.81,47.9
-0.12,1.13,0.59,13.46,21.84,50.08
-0.15,1.13,0.58,18.0,21.3,52.2
-0.15,1.13,0.58,18.0,21.3,52.2
-0.13,1.1,0.59,22.27,20.12,53.83
-0.09,1.04,0.64,26.05,18.84,55.83
-0.07,0.98,0.71,28.93,18.06,58.49
-0.06,0.91,0.76,30.56,18.32,61.54
-0.07,0.84,0.79,31.14,19.75,64.81
-0.07,0.84,0.79,31.14,19.75,64.81
-0.11,0.77,0.85,30.74,22.23,68.09
-0.17,0.68,0.9,29.19,25.44,70.94
-0.21,0.58,0.96,26.58,29.0,73.11
-0.25,0.47,1.0,23.18,32.68,74.68
-0.3,0.36,1.05,19.37,36.28,75.81
-0.3,0.36,1.05,19.37,36.28,75.81
-0.37,0.26,1.09,15.67,39.46,76.55
-0.46,0.2,1.12,12.44,42.01,76.63
-0.54,0.15,1.13,9.99,43.03,75.62
-0.55,0.12,1.13,8.27,42.22,73.3
-0.49,0.09,1.13,7.03,39.88,70.04
-0.49,0.09,1.13,7.03,39.88,70.04
-0.38,0.05,1.16,5.87,36.35,67.04
-0.28,0.01,1.2,4.26,32.3,65.46
-0.23,-0.02,1.22,1.98,28.53,65.22
-0.21,-0.07,1.2,-0.46,25.64,65.73
-0.21,-0.11,1.19,-2.58,23.86,66.56
-0.21,-0.11,1.19,-2.58,23.86,66.56
-0.22,-0.17,1.16,-4.4,23.02,67.46
-0.25,-0.2,1.13,-6.13,22.78,68.02
-0.27,-0.24,1.09,-7.78,22.75,67.75
-0.28,-0.27,1.06,-8.97,22.7,66.3
-0.28,-0.3,1.04,-9.5,22.59,63.63
-0.28,-0.3,1.04,-9.5,22.59,63.63
-0.26,-0.31,1.02,-9.32,22.46,60.0
-0.24,-0.3,1.0,-8.54,22.36,55.94
-0.21,-0.27,1.02,-7.36,22.37,51.73
-0.18,-0.22,1.04,-6.71,22.56,47.99
-0.22,-0.13,1.05,-6.52,22.45,44.9
-0.22,-0.13,1.05,-6.52,22.45,44.9
-0.11,-0.17,1.0,-7.2,22.46,40.24
-0.13,-0.16,1.07,-7.06,23.05,38.31
-0.19,-0.17,1.08,-7.84,23.2,38.22
-0.11,-0.16,1.06,-9.28,22.52,36.77
-0.11,-0.14,1.04,-10.66,22.29,36.96
-0.11,-0.14,1.04,-10.66,22.29,36.96
-0.14,-0.16,1.04,-11.7,22.11,37.33
-0.12,-0.21,1.0,-13.12,21.81,36.61
-0.09,-0.23,0.97,-13.7,21.32,35.38
-0.08,-0.2,0.98,-12.54,21.31,34.44
-0.08,-0.2,0.98,-10.45,22.23,33.28
-0.07,-0.13,1.02,-10.45,22.23,33.28
-0.07,-0.08,1.05,-8.86,23.56,31.99
-0.09,-0.05,1.04,-8.43,24.89,30.75
-0.11,-0.07,1.04,-8.75,26.08,29.44
-0.11,-0.08,1.03,-9.35,26.8,27.66
-0.11,-0.08,1.03,-9.36,27.13,26.01
-0.11,-0.07,1.04,-9.36,27.13,26.01
-0.12,-0.04,1.06,-8.65,27.28,24.61
-0.15,0.01,1.09,-7.9,27.08,23.02
-0.16,0.05,1.09,-7.68,26.12,21.09
-0.17,0.09,1.08,-8.19,24.5,19.23
-0.17,0.09,1.08,-8.19,24.5,19.23
-0.16,0.11,1.08,-9.5,22.26,17.76
-0.13,0.11,1.06,-11.55,19.53,16.43
-0.1,0.1,1.04,-13.92,16.71,15.43
-0.09,0.09,1.02,-16.11,14.09,14.99
-0.08,0.09,1.02,-17.93,11.74,14.63
-0.08,0.09,1.02,-17.93,11.74,14.63
-0.07,0.11,1.01,-19.4,9.74,13.91
-0.09,0.16,1.01,-20.91,8.38,13.27
-0.09,0.17,1.01,-22.93,7.22,12.52
-0.09,0.16,1.0,-25.26,6.27,11.6
-0.1,0.11,0.97,-27.84,5.4,10.92
-0.1,0.11,0.97,-27.84,5.4,10.92
-0.12,0.07,0.95,-30.05,4.11,10.4
-0.11,0.03,0.9,-31.32,2.47,9.53
-0.05,-0.01,0.85,-30.88,0.75,8.21
-0.02,-0.01,0.84,-27.99,-0.3,7.53
-0.08,0.04,0.86,-23.26,-0.79,7.63
-0.08,0.04,0.86,-23.26,-0.79,7.63
-0.08,0.03,0.87,-17.69,-1.33,6.22
-0.07,0.07,0.85,-10.67,-1.59,4.54
-0.06,0.14,0.89,-2.57,-1.15,3.15
-0.07,0.24,0.94,4.79,-0.27,1.87
-0.04,0.27,0.95,9.86,0.42,0.1
-0.04,0.27,0.95,9.86,0.42,0.1
-0.04,0.3,0.94,12.98,1.15,-1.23
-0.06,0.32,0.93,14.51,2.02,-1.91
-0.06,0.35,0.93,14.43,2.87,-2.61
-0.06,0.35,0.93,13.03,3.48,-2.88
-0.06,0.37,0.96,10.93,3.87,-2.91
-0.06,0.37,0.96,10.93,3.87,-2.91
-0.02,0.41,0.98,6.57,4.46,-3.79
-0.04,0.36,0.91,-0.95,5.05,-4.11
-0.13,0.23,0.85,-6.58,4.7,-2.71
-0.09,0.23,0.87,-8.0,4.63,-2.76
-0.04,0.26,0.88,-10.09,4.17,-3.98
-0.04,0.26,0.88,-10.09,4.17,-3.98
-0.08,0.28,0.88,-12.51,2.49,-3.55
-0.07,0.24,0.87,-13.76,1.16,-3.7
0.04,0.2,0.95,-13.88,0.18,-5.49
-0.07,0.33,0.97,-15.82,-0.14,-5.54
-0.04,0.27,0.96,-18.78,-1.71,-5.9
-0.04,0.27,0.96,-18.78,-1.71,-5.9
-0.08,0.27,0.9,-20.43,-1.82,-5.57
-0.09,0.24,0.86,-21.85,-2.27,-5.63
-0.09,0.24,0.9,-22.2,-4.33,-5.93
-0.07,0.21,0.9,-20.68,-6.38,-6.19
-0.05,0.2,0.9,-17.84,-7.91,-6.2
-0.05,0.2,0.9,-17.84,-7.91,-6.2
-0.02,0.22,0.9,-14.41,-9.41,-6.35
0.01,0.26,0.93,-10.34,-10.47,-6.5
0.02,0.29,0.96,-6.33,-10.75,-6.9
0.02,0.31,0.97,-2.81,-10.28,-7.62
0.01,0.32,0.98,0.3,-9.28,-8.38
0.01,0.32,0.98,0.3,-9.28,-8.38
-0.02,0.34,0.99,2.96,-7.96,-9.2
-0.04,0.37,0.98,4.87,-6.68,-10.08
-0.05,0.39,0.97,5.68,-5.76,-11.12
-0.06,0.37,0.95,5.38,-5.29,-12.29
-0.04,0.35,0.93,4.34,-5.23,-13.53
-0.04,0.35,0.93,4.34,-5.23,-13.53
-0.01,0.33,0.91,3.16,-5.32,-14.63
0.02,0.34,0.9,2.05,-5.27,-15.35
0.05,0.35,0.91,0.93,-4.96,-15.69
0.05,0.35,0.92,0.03,-4.22,-15.6
0.04,0.35,0.93,-0.46,-2.99,-15.05
0.04,0.35,0.93,-0.46,-2.99,-15.05
0.01,0.35,0.94,-0.87,-1.46,-14.25
-0.03,0.37,0.94,-1.59,-0.09,-13.29
-0.07,0.37,0.94,-2.76,0.8,-12.3
-0.08,0.37,0.93,-4.23,1.03,-11.41
