ax,ay,az,gx,gy,gz
0.06,-0.65,0.83,16.06,6.95,2.81
0.06,-0.65,0.83,16.06,6.95,2.81
0.04,-0.66,0.81,14.84,6.51,2.61
0.03,-0.66,0.8,14.0,5.64,2.13
0.03,-0.65,0.81,13.48,4.33,1.29
0.02,-0.65,0.82,13.13,2.72,-0.13
0.02,-0.64,0.82,12.84,0.97,-2.4
0.02,-0.64,0.82,12.84,0.97,-2.4
0.03,-0.64,0.82,12.55,-0.97,-5.35
0.04,-0.65,0.84,12.18,-3.02,-8.74
0.05,-0.65,0.84,11.61,-4.84,-12.48
0.07,-0.65,0.84,10.72,-6.33,-16.45
0.11,-0.65,0.85,9.56,-7.46,-20.22
0.11,-0.65,0.85,9.56,-7.46,-20.22
0.15,-0.65,0.85,8.17,-8.05,-23.15
0.16,-0.66,0.85,6.66,-8.05,-24.92
0.15,-0.67,0.85,5.27,-7.53,-25.57
0.12,-0.69,0.84,4.38,-6.64,-25.39
0.08,-0.68,0.83,4.35,-5.63,-24.7
0.08,-0.68,0.83,4.35,-5.63,-24.7
0.06,-0.66,0.83,5.28,-4.78,-23.85
0.05,-0.63,0.85,6.9,-4.2,-23.02
0.06,-0.6,0.87,8.77,-3.87,-22.17
0.07,-0.58,0.88,10.49,-3.74,-21.13
0.07,-0.56,0.89,11.8,-3.7,-19.81
0.07,-0.56,0.89,11.8,-3.7,-19.81
0.07,-0.55,0.89,12.63,-3.72,-18.21
0.07,-0.54,0.88,13.0,-3.83,-16.31
0.07,-0.52,0.88,12.92,-4.1,-14.07
0.06,-0.52,0.87,12.32,-4.47,-11.7
0.05,-0.52,0.86,11.33,-5.04,-9.32
0.05,-0.52,0.86,11.33,-5.04,-9.32
0.04,-0.53,0.85,10.18,-5.69,-6.98
0.03,-0.54,0.86,9.11,-6.2,-4.79
0.02,-0.54,0.86,8.1,-6.4,-2.92
0.02,-0.54,0.87,7.13,-6.17,-1.57
0.03,-0.53,0.86,6.12,-5.4,-0.71
0.03,-0.53,0.86,6.12,-5.4,-0.71
0.03,-0.54,0.85,5.04,-4.22,-0.19
0.03,-0.54,0.85,3.98,-2.86,0.23
0.02,-0.55,0.83,3.07,-1.48,0.68
0.01,-0.56,0.83,2.44,-0.25,1.13
-0.0,-0.56,0.82,2.18,0.67,1.55
-0.0,-0.56,0.82,2.18,0.67,1.55
-0.01,-0.55,0.81,2.25,1.13,1.9
-0.01,-0.55,0.81,2.59,1.13,2.28
-0.01,-0.55,0.81,3.12,0.76,2.72
0.01,-0.54,0.81,3.7,0.1,3.22
0.02,-0.54,0.81,4.32,-0.74,3.81
0.02,-0.54,0.81,4.32,-0.74,3.81
0.03,-0.54,0.81,4.95,-1.61,4.5
0.03,-0.54,0.81,5.47,-2.41,5.26
0.03,-0.54,0.81,5.78,-3.02,5.95
0.03,-0.54,0.8,5.87,-3.45,6.36
0.03,-0.55,0.79,5.82,-3.76,6.52
0.03,-0.55,0.79,5.82,-3.76,6.52
0.04,-0.55,0.79,5.64,-3.96,6.6
0.05,-0.55,0.79,5.33,-4.05,6.68
0.05,-0.56,0.79,4.85,-3.98,6.72
0.05,-0.56,0.78,4.23,-3.7,6.68
0.05,-0.57,0.77,3.61,-3.24,6.53
0.05,-0.57,0.77,3.61,-3.24,6.53
0.05,-0.58,0.75,3.13,-2.59,6.23
0.05,-0.59,0.74,2.97,-1.77,5.77
0.04,-0.59,0.74,3.25,-0.92,5.23
0.04,-0.58,0.75,3.92,-0.12,4.8
0.04,-0.57,0.75,4.76,0.54,4.56
0.04,-0.57,0.75,4.76,0.54,4.56
0.04,-0.57,0.77,5.57,1.07,4.48
0.03,-0.57,0.77,6.27,1.53,4.38
0.02,-0.57,0.77,6.87,1.93,4.22
0.01,-0.56,0.77,7.36,2.19,4.03
0.02,-0.56,0.78,7.74,2.29,3.78
0.02,-0.56,0.78,7.74,2.29,3.78
0.02,-0.56,0.79,7.91,2.37,3.47
0.03,-0.55,0.8,7.72,2.53,3.14
0.03,-0.55,0.79,7.27,2.77,2.78
0.03,-0.55,0.78,6.71,3.03,2.39
0.03,-0.56,0.78,6.09,3.26,2.03
0.03,-0.56,0.78,6.09,3.26,2.03
0.04,-0.56,0.78,5.49,3.49,1.78
0.05,-0.56,0.78,4.89,3.76,1.63
0.05,-0.57,0.78,4.31,4.11,1.48
0.04,-0.57,0.77,3.91,4.38,1.29
0.05,-0.57,0.78,3.73,4.58,1.14
0.05,-0.57,0.78,3.73,4.58,1.14
0.05,-0.57,0.79,3.71,4.68,1.1
0.06,-0.56,0.79,3.7,4.67,1.11
0.06,-0.57,0.79,3.64,4.63,1.19
0.07,-0.57,0.79,3.6,4.55,1.29
0.07,-0.57,0.79,3.63,4.46,1.39
0.07,-0.57,0.79,3.63,4.46,1.39
0.07,-0.57,0.78,3.69,4.42,1.52
0.07,-0.57,0.78,3.7,4.4,1.61
0.08,-0.58,0.78,3.66,4.41,1.64
0.09,-0.59,0.78,3.57,4.54,1.68
0.1,-0.6,0.77,3.58,4.8,1.78
0.1,-0.6,0.77,3.58,4.8,1.78
0.11,-0.61,0.76,3.87,5.24,2.08
0.12,-0.62,0.76,4.57,5.87,2.68
0.11,-0.62,0.75,5.74,6.75,3.57
0.09,-0.62,0.75,7.36,7.79,4.54
0.06,-0.61,0.76,9.4,8.88,5.4
0.06,-0.61,0.76,9.4,8.88,5.4
0.03,-0.59,0.78,11.71,9.95,5.97
0.01,-0.56,0.79,14.06,10.95,6.15
0.01,-0.53,0.82,16.15,11.75,5.95
0.0,-0.51,0.84,17.6,12.43,5.43
-0.01,-0.5,0.86,18.15,13.01,4.62
-0.01,-0.5,0.86,18.15,13.01,4.62
-0.01,-0.49,0.86,17.85,13.41,3.65
-0.02,-0.48,0.87,16.82,13.52,2.74
-0.03,-0.48,0.88,15.1,13.34,1.9
-0.03,-0.49,0.88,12.76,12.79,1.08
-0.03,-0.5,0.88,10.05,12.01,0.27
-0.03,-0.5,0.88,10.05,12.01,0.27
-0.02,-0.52,0.87,7.38,11.09,-0.48
-0.01,-0.53,0.87,5.02,10.23,-1.09
-0.0,-0.54,0.86,3.13,9.47,-1.57
-0.01,-0.54,0.86,1.75,8.87,-1.92
-0.01,-0.54,0.86,0.76,8.27,-2.17
-0.01,-0.54,0.86,0.76,8.27,-2.17
-0.01,-0.54,0.86,0.05,7.61,-2.38
-0.0,-0.54,0.86,-0.38,6.9,-2.52
0.0,-0.53,0.86,-0.62,6.2,-2.63
0.01,-0.54,0.85,-0.74,5.55,-2.66
0.01,-0.54,0.86,-0.77,4.95,-2.6
0.01,-0.54,0.86,-0.77,4.95,-2.6
0.02,-0.54,0.86,-0.73,4.45,-2.44
0.01,-0.55,0.85,-0.63,4.11,-2.23
0.01,-0.55,0.84,-0.45,3.89,-2.07
-0.01,-0.56,0.84,-0.13,3.7,-2.01
-0.02,-0.55,0.84,0.34,3.39,-2.15
-0.02,-0.55,0.84,0.34,3.39,-2.15
-0.04,-0.54,0.85,0.86,2.86,-2.51
-0.03,-0.53,0.85,1.27,2.07,-3.04
-0.02,-0.52,0.85,1.41,1.05,-3.64
-0.0,-0.51,0.85,1.24,-0.05,-4.23
0.0,-0.51,0.84,0.81,-1.04,-4.68
0.0,-0.51,0.84,0.81,-1.04,-4.68
0.01,-0.51,0.84,0.19,-1.87,-5.0
0.01,-0.52,0.83,-0.53,-2.47,-5.23
0.03,-0.53,0.82,-1.21,-2.77,-5.34
0.04,-0.54,0.82,-1.74,-2.76,-5.27
0.04,-0.54,0.81,-1.98,-2.42,-5.03
0.04,-0.54,0.81,-1.98,-2.42,-5.03
0.03,-0.55,0.81,-1.91,-1.76,-4.76
0.03,-0.54,0.81,-1.58,-0.87,-4.41
0.03,-0.54,0.81,-1.04,0.05,-4.02
0.03,-0.54,0.81,-0.36,0.88,-3.6
0.04,-0.53,0.81,0.44,1.55,-3.16
0.04,-0.53,0.81,0.44,1.55,-3.16
0.04,-0.51,0.82,1.2,2.11,-2.76
0.04,-0.5,0.84,1.8,2.58,-2.46
0.04,-0.48,0.85,2.16,2.81,-2.32
0.05,-0.47,0.86,2.12,2.81,-2.3
0.07,-0.45,0.87,1.61,2.52,-2.32
0.07,-0.45,0.87,1.61,2.52,-2.32
0.09,-0.44,0.89,0.67,1.98,-2.36
0.12,-0.43,0.9,-0.67,1.35,-2.51
0.17,-0.41,0.9,-2.23,0.75,-2.89
0.23,-0.39,0.92,-3.86,0.39,-3.44
0.29,-0.37,0.94,-5.38,0.42,-3.96
0.29,-0.37,0.94,-5.38,0.42,-3.96
0.35,-0.34,0.96,-6.72,0.93,-4.28
0.4,-0.31,0.98,-7.84,1.94,-4.41
0.43,-0.28,1.01,-8.66,3.33,-4.34
0.47,-0.24,1.05,-9.17,5.05,-4.18
0.5,-0.2,1.09,-9.39,7.15,-4.01
0.5,-0.2,1.09,-9.39,7.15,-4.01
0.53,-0.17,1.13,-9.36,9.73,-3.95
0.56,-0.14,1.17,-8.98,12.95,-4.11
0.58,-0.11,1.23,-8.24,16.7,-4.35
0.57,-0.08,1.26,-7.4,20.49,-4.49
0.55,-0.05,1.29,-6.73,23.72,-4.31
0.55,-0.05,1.29,-6.73,23.72,-4.31
0.51,-0.02,1.31,-6.23,26.17,-3.85
0.45,0.0,1.33,-5.57,27.74,-3.24
0.38,0.03,1.36,-4.63,28.25,-2.46
0.32,0.06,1.39,-3.68,27.5,-1.59
0.29,0.08,1.41,-3.01,25.51,-0.81
0.29,0.08,1.41,-3.01,25.51,-0.81
0.29,0.08,1.42,-2.9,22.47,-0.21
0.29,0.06,1.41,-3.33,18.52,0.52
0.27,0.03,1.38,-4.06,13.81,1.79
0.23,0.0,1.37,-4.7,8.67,3.66
0.17,-0.02,1.36,-5.07,3.39,5.99
0.17,-0.02,1.36,-5.07,3.39,5.99
0.11,-0.03,1.34,-5.23,-1.92,8.45
0.06,-0.04,1.32,-5.31,-7.19,10.87
0.04,-0.06,1.31,-5.4,-12.35,13.18
0.02,-0.1,1.31,-5.73,-17.2,15.74
-0.01,-0.16,1.29,-6.6,-21.62,18.93
-0.01,-0.16,1.29,-6.6,-21.62,18.93
-0.07,-0.23,1.26,-7.98,-25.55,22.75
-0.14,-0.29,1.21,-9.67,-29.09,26.75
-0.2,-0.34,1.15,-11.58,-32.37,30.41
-0.25,-0.39,1.06,-13.3,-35.49,33.37
-0.29,-0.43,1.0,-14.27,-38.59,35.47
-0.29,-0.43,1.0,-14.27,-38.59,35.47
-0.32,-0.48,0.96,-14.57,-41.87,36.89
-0.34,-0.5,0.92,-14.59,-45.31,38.08
-0.36,-0.52,0.88,-14.72,-48.78,39.17
-0.38,-0.54,0.84,-15.33,-52.11,40.1
-0.38,-0.54,0.84,-16.67,-55.24,40.8
-0.38,-0.58,0.8,-16.67,-55.24,40.8
-0.38,-0.63,0.77,-19.01,-58.06,41.32
-0.38,-0.67,0.69,-22.37,-60.47,41.55
-0.36,-0.72,0.62,-26.13,-62.28,41.02
-0.33,-0.78,0.56,-29.77,-63.32,39.72
-0.33,-0.78,0.56,-29.77,-63.32,39.72
-0.29,-0.83,0.5,-32.92,-63.4,38.14
-0.25,-0.88,0.45,-35.64,-62.62,36.86
-0.24,-0.94,0.41,-38.08,-61.01,35.94
-0.23,-1.0,0.37,-40.25,-58.56,35.2
-0.22,-1.07,0.31,-42.0,-55.43,34.57
-0.22,-1.07,0.31,-42.0,-55.43,34.57
-0.24,-1.13,0.25,-42.93,-51.52,33.88
-0.25,-1.18,0.2,-42.36,-46.55,32.93
-0.29,-1.19,0.16,-39.72,-40.8,31.74
-0.35,-1.17,0.18,-35.29,-35.06,30.6
-0.4,-1.1,0.23,-29.84,-29.76,29.43
-0.4,-1.1,0.23,-29.84,-29.76,29.43
-0.42,-1.04,0.28,-24.43,-25.11,27.95
-0.39,-1.0,0.31,-20.15,-21.44,26.27
-0.37,-1.0,0.33,-17.67,-19.05,24.8
-0.36,-1.02,0.32,-16.99,-17.88,23.57
-0.35,-1.06,0.29,-17.46,-17.56,22.32
-0.35,-1.06,0.29,-17.46,-17.56,22.32
-0.34,-1.09,0.27,-18.36,-17.86,20.95
-0.32,-1.08,0.28,-19.53,-18.47,19.6
-0.27,-1.14,0.26,-22.05,-19.05,17.83
-0.26,-1.3,0.16,-22.71,-20.09,17.48
-0.28,-1.22,0.19,-20.24,-20.97,18.01
-0.28,-1.22,0.19,-20.24,-20.97,18.01
-0.26,-1.12,0.31,-18.8,-21.55,16.86
-0.22,-1.08,0.36,-18.54,-21.75,15.69
-0.2,-1.13,0.29,-20.13,-21.59,15.33
-0.18,-1.21,0.2,-21.64,-21.23,15.07
-0.17,-1.28,0.13,-20.82,-20.17,15.1
-0.17,-1.28,0.13,-20.82,-20.17,15.1
-0.18,-1.32,0.14,-17.54,-18.93,15.25
-0.18,-1.31,0.21,-12.65,-17.84,15.47
-0.18,-1.28,0.25,-7.34,-16.54,15.63
-0.16,-1.26,0.27,-2.34,-15.08,15.49
-0.17,-1.26,0.28,2.19,-13.4,15.19
-0.17,-1.26,0.28,2.19,-13.4,15.19
-0.19,-1.26,0.29,6.34,-11.56,14.63
-0.21,-1.25,0.29,10.23,-9.76,13.58
-0.2,-1.23,0.29,13.44,-8.33,11.95
-0.17,-1.22,0.3,15.74,-7.56,9.84
-0.13,-1.22,0.28,17.16,-7.46,7.47
-0.13,-1.22,0.28,17.16,-7.46,7.47
-0.1,-1.21,0.26,17.63,-8.09,4.94
-0.06,-1.22,0.24,17.12,-9.48,2.14
-0.03,-1.21,0.21,15.69,-11.36,-1.02
-0.01,-1.22,0.19,13.47,-13.52,-4.57
0.0,-1.24,0.16,10.73,-15.68,-8.51
0.0,-1.24,0.16,10.73,-15.68,-8.51
0.0,-1.26,0.13,7.69,-17.64,-12.74
0.01,-1.29,0.11,4.67,-19.11,-17.37
0.02,-1.3,0.1,2.17,-19.56,-22.44
0.07,-1.36,0.1,0.23,-18.47,-28.13
0.1,-1.37,0.11,-0.31,-15.59,-32.31
0.1,-1.37,0.11,-0.31,-15.59,-32.31
0.02,-1.29,0.17,-0.56,-11.29,-34.43
-0.02,-1.37,0.16,-0.71,-5.33,-37.6
-0.09,-1.42,0.12,2.05,1.52,-40.25
-0.15,-1.43,0.16,6.84,8.45,-42.97
-0.2,-1.36,0.24,13.23,14.8,-45.86
-0.2,-1.36,0.24,13.23,14.8,-45.86
-0.21,-1.24,0.32,19.76,20.02,-49.16
-0.18,-1.15,0.38,24.65,23.29,-53.26
-0.14,-1.05,0.45,27.46,24.59,-57.86
-0.13,-0.98,0.52,27.39,24.35,-63.18
-0.13,-0.9,0.56,24.19,22.88,-69.21
-0.13,-0.9,0.56,24.19,22.88,-69.21
-0.13,-0.81,0.59,17.77,20.55,-75.9
-0.07,-0.74,0.61,7.5,17.8,-83.79
0.03,-0.73,0.59,-6.9,14.94,-92.28
0.12,-0.78,0.54,-24.6,12.39,-100.0
0.2,-0.88,0.5,-43.41,11.38,-106.61
0.2,-0.88,0.5,-43.41,11.38,-106.61
0.25,-0.99,0.45,-60.76,13.39,-111.97
0.24,-1.11,0.37,-74.29,18.92,-115.93
0.17,-1.19,0.29,-82.07,26.69,-118.5
0.07,-1.21,0.29,-83.23,34.73,-119.75
-0.01,-1.16,0.36,-78.04,42.07,-119.53
-0.01,-1.16,0.36,-78.04,42.07,-119.53
-0.06,-1.08,0.45,-67.88,48.19,-118.04
-0.09,-0.96,0.55,-54.27,52.88,-115.76
-0.09,-0.83,0.64,-38.4,56.38,-113.34
-0.12,-0.7,0.73,-21.5,58.68,-110.87
-0.17,-0.56,0.82,-4.83,59.54,-108.34
-0.17,-0.56,0.82,-4.83,59.54,-108.34
-0.26,-0.39,0.92,10.58,58.64,-106.1
-0.3,-0.2,0.99,23.78,56.13,-105.01
-0.29,-0.03,1.1,33.64,51.99,-105.49
-0.24,0.12,1.26,38.17,46.51,-107.3
-0.11,0.21,1.27,35.26,40.46,-110.09
-0.11,0.21,1.27,35.26,40.46,-110.09
0.05,0.21,1.24,26.04,35.08,-112.61
0.15,0.16,1.25,13.57,31.93,-113.46
0.17,0.07,1.26,0.19,31.78,-112.15
0.12,-0.03,1.22,-12.6,34.09,-109.42
0.05,-0.12,1.17,-23.44,37.76,-106.3
0.05,-0.12,1.17,-23.44,37.76,-106.3
-0.01,-0.17,1.12,-30.87,41.8,-103.1
-0.03,-0.19,1.1,-33.89,45.5,-99.78
-0.03,-0.17,1.12,-32.35,48.23,-96.34
-0.03,-0.11,1.18,-26.93,49.78,-92.65
-0.03,-0.03,1.23,-19.18,50.05,-88.67
-0.03,-0.03,1.23,-19.18,50.05,-88.67
-0.04,0.08,1.26,-10.7,49.02,-84.6
-0.04,0.18,1.29,-2.67,46.65,-80.82
-0.01,0.25,1.33,3.92,43.08,-77.5
0.05,0.3,1.37,8.17,38.8,-74.41
0.13,0.32,1.39,9.39,34.63,-71.32
0.13,0.32,1.39,9.39,34.63,-71.32
0.2,0.31,1.39,7.53,31.16,-67.85
0.25,0.28,1.37,3.13,28.68,-63.95
0.27,0.22,1.33,-2.96,27.03,-59.57
0.26,0.16,1.28,-10.04,25.94,-54.95
0.27,0.1,1.23,-17.19,25.03,-50.52
0.27,0.1,1.23,-17.19,25.03,-50.52
0.29,0.04,1.19,-23.5,24.06,-46.37
0.31,-0.01,1.18,-28.51,23.05,-42.32
0.32,-0.06,1.17,-32.22,22.04,-38.34
0.33,-0.11,1.14,-34.5,21.06,-34.59
0.35,-0.15,1.11,-35.11,20.25,-31.25
0.35,-0.15,1.11,-35.11,20.25,-31.25
0.37,-0.2,1.08,-33.64,19.64,-28.35
0.4,-0.25,1.04,-29.86,19.11,-25.86
0.43,-0.18,1.04,-23.6,18.74,-23.39
0.42,-0.11,1.11,-16.65,18.54,-20.71
0.43,-0.08,1.11,-9.73,18.41,-18.58
0.43,-0.08,1.11,-9.73,18.41,-18.58
0.46,-0.04,1.11,-3.44,18.64,-17.38
0.47,-0.01,1.15,1.59,19.07,-16.15
0.48,0.02,1.18,4.92,19.83,-14.69
0.5,0.03,1.18,6.55,20.94,-13.42
0.5,0.02,1.17,7.05,22.6,-12.43
0.5,0.02,1.17,7.05,22.6,-12.43
0.49,-0.0,1.18,6.92,24.7,-11.45
0.49,-0.11,1.15,6.7,26.94,-9.57
0.48,-0.01,1.17,7.5,29.48,-3.18
0.23,0.25,1.34,6.29,31.29,7.01
0.19,-0.02,1.18,3.67,30.05,10.73
0.19,-0.02,1.18,3.67,30.05,10.73
0.16,-0.02,1.11,6.56,29.38,9.76
0.15,-0.01,1.31,11.23,27.06,6.27
0.25,0.02,1.35,15.61,24.47,4.54
0.25,0.07,1.3,18.76,22.31,8.74
0.18,0.16,1.34,22.33,19.7,16.35
0.18,0.16,1.34,22.33,19.7,16.35
0.15,0.2,1.41,26.2,16.69,22.44
0.13,0.16,1.46,29.06,13.44,27.78
0.05,0.14,1.49,29.82,10.34,34.06
0.02,0.09,1.44,28.38,6.89,39.4
0.02,-0.03,1.36,26.71,3.29,43.31
0.02,-0.03,1.36,26.71,3.29,43.31
-0.02,-0.11,1.34,26.18,-0.49,47.25
-0.06,-0.14,1.34,26.6,-4.67,51.21
-0.06,-0.14,1.33,27.36,-9.13,54.6
-0.04,-0.13,1.34,27.64,-13.87,57.37
-0.03,-0.16,1.33,26.84,-18.73,59.46
-0.03,-0.16,1.33,26.84,-18.73,59.46
-0.02,-0.23,1.3,24.85,-23.51,60.8
-0.03,-0.31,1.23,22.07,-27.91,62.36
-0.06,-0.38,1.17,19.06,-31.73,64.67
-0.08,-0.45,1.11,15.98,-35.29,66.62
-0.12,-0.46,1.09,12.74,-38.49,67.16
-0.12,-0.46,1.09,12.74,-38.49,67.16
-0.07,-0.58,1.0,8.84,-41.38,65.25
-0.04,-0.78,0.69,6.95,-43.03,64.05
-0.04,-0.89,0.58,11.27,-44.35,64.19
-0.1,-0.77,0.75,19.63,-45.25,64.85
-0.12,-0.61,0.86,27.55,-46.0,65.34
-0.12,-0.61,0.86,27.55,-46.0,65.34
-0.1,-0.57,0.81,32.82,-45.42,64.82
-0.07,-0.66,0.74,35.18,-44.23,63.82
-0.05,-0.78,0.62,36.61,-42.17,63.37
-0.06,-0.86,0.53,38.85,-39.85,63.58
-0.09,-0.88,0.54,42.02,-37.8,64.21
-0.09,-0.88,0.54,42.02,-37.8,64.21
-0.12,-0.87,0.57,44.78,-35.95,64.92
-0.12,-0.86,0.58,46.18,-34.11,65.06
-0.09,-0.88,0.57,46.19,-31.99,64.63
-0.06,-0.91,0.57,45.15,-29.38,64.15
-0.07,-0.95,0.57,43.49,-26.26,64.12
-0.07,-0.95,0.57,43.49,-26.26,64.12
-0.1,-0.99,0.54,41.39,-23.17,64.48
-0.14,-1.03,0.51,38.88,-20.93,64.84
-0.16,-1.07,0.5,36.13,-19.82,64.99
-0.17,-1.08,0.5,33.32,-19.79,64.6
-0.16,-1.09,0.52,30.57,-20.46,63.41
-0.16,-1.09,0.52,30.57,-20.46,63.41
-0.15,-1.07,0.54,27.74,-21.49,61.43
-0.14,-1.06,0.56,24.48,-22.78,58.82
-0.11,-1.05,0.56,20.54,-24.13,55.91
-0.07,-1.04,0.56,15.99,-25.09,52.96
-0.04,-1.05,0.54,11.14,-25.4,50.15
-0.04,-1.05,0.54,11.14,-25.4,50.15
-0.02,-1.07,0.49,6.19,-25.2,47.58
-0.03,-1.1,0.41,1.51,-25.02,45.23
-0.05,-1.11,0.33,-2.19,-25.3,42.89
-0.04,-1.1,0.26,-4.38,-26.34,40.44
-0.01,-1.06,0.24,-4.91,-28.14,38.19
-0.01,-1.06,0.24,-4.91,-28.14,38.19
0.03,-1.0,0.26,-4.35,-30.27,36.37
0.06,-0.94,0.3,-3.63,-31.89,34.81
0.09,-0.91,0.35,-3.31,-32.39,33.34
0.11,-0.91,0.39,-3.7,-31.63,32.02
0.12,-0.92,0.44,-4.87,-29.52,31.0
0.12,-0.92,0.44,-4.87,-29.52,31.0
0.12,-0.92,0.47,-6.7,-26.22,30.21
0.08,-0.95,0.49,-8.92,-22.07,29.3
0.11,-1.0,0.47,-10.9,-17.76,28.12
-0.01,-0.85,0.52,-12.38,-13.83,28.21
-0.03,-0.86,0.53,-15.91,-10.99,24.76
-0.03,-0.86,0.53,-15.91,-10.99,24.76
0.04,-1.07,0.46,-19.02,-9.79,19.69
0.07,-1.11,0.4,-18.93,-9.45,17.04
0.12,-1.05,0.45,-17.94,-9.27,15.03
0.13,-0.94,0.54,-15.77,-8.62,13.43
0.11,-0.88,0.63,-13.68,-7.15,11.21
0.11,-0.88,0.63,-13.68,-7.15,11.21
0.11,-0.87,0.61,-13.1,-5.15,7.77
0.1,-0.84,0.57,-13.27,-3.01,5.14
0.06,-0.77,0.58,-13.42,-0.56,4.26
0.02,-0.71,0.63,-13.24,2.06,3.78
0.01,-0.67,0.65,-12.64,4.7,2.87
0.01,-0.67,0.65,-12.64,4.7,2.87
-0.01,-0.63,0.66,-12.32,7.14,2.16
-0.04,-0.62,0.67,-12.87,8.84,1.92
-0.05,-0.64,0.67,-14.33,9.36,1.61
-0.02,-0.71,0.64,-16.6,8.7,1.13
-0.01,-0.77,0.6,-19.22,6.86,1.02
-0.01,-0.77,0.6,-19.22,6.86,1.02
0.02,-0.82,0.58,-21.44,4.35,0.82
0.07,-0.83,0.58,-22.54,1.98,0.16
0.12,-0.81,0.61,-22.55,0.53,-0.5
0.14,-0.78,0.64,-21.97,0.29,-1.09
0.13,-0.73,0.67,-21.17,1.39,-1.66
0.13,-0.73,0.67,-21.17,1.39,-1.66
0.07,-0.7,0.68,-20.49,3.5,-2.07
0.04,-0.68,0.68,-19.41,6.07,-2.73
-0.01,-0.63,0.71,-18.06,8.8,-3.14
-0.01,-0.58,0.76,-17.48,10.98,-3.44
0.0,-0.51,0.8,-18.94,12.46,-2.91
0.0,-0.51,0.8,-18.94,12.46,-2.91
0.02,-0.46,0.83,-23.81,13.07,-0.77
0.02,-0.47,0.8,-31.97,12.85,3.16
0.03,-0.53,0.68,-41.16,12.77,7.44
0.03,-0.64,0.56,-49.32,12.8,10.91
-0.04,-0.78,0.46,-54.79,11.94,12.69
-0.04,-0.78,0.46,-54.79,11.94,12.69
0.03,-1.05,0.29,-54.32,10.72,9.07
0.08,-1.16,0.31,-45.18,10.14,4.32
0.1,-1.11,0.5,-31.51,9.23,1.4
0.08,-0.91,0.66,-16.37,8.84,0.21
0.1,-0.75,0.71,-2.01,9.98,-1.7
0.1,-0.75,0.71,-2.01,9.98,-1.7
0.11,-0.66,0.76,10.55,11.75,-3.94
0.1,-0.61,0.81,21.02,13.75,-5.13
0.06,-0.55,0.84,28.64,15.68,-4.66
-0.0,-0.49,0.88,32.67,16.71,-2.88
-0.06,-0.45,0.92,32.34,16.39,-1.05
-0.06,-0.45,0.92,32.34,16.39,-1.05
-0.07,-0.47,0.86,27.64,14.63,-0.16
-0.01,-0.54,0.79,20.72,11.46,-0.48
0.03,-0.62,0.79,13.49,8.15,-1.4
0.07,-0.7,0.78,6.21,4.79,-2.39
0.08,-0.54,0.76,-0.43,2.65,-2.86
0.08,-0.54,0.76,-0.43,2.65,-2.86
0.03,-0.69,0.71,-7.3,0.42,-3.34
0.08,-0.83,0.62,-9.59,-1.01,-5.5
0.15,-0.79,0.67,-9.07,-0.68,-6.46
0.07,-0.72,0.79,-8.17,-0.69,-2.84
-0.02,-0.66,0.78,-6.47,-0.65,1.08
-0.02,-0.66,0.78,-6.47,-0.65,1.08
-0.02,-0.64,0.76,-5.11,-0.21,0.68
0.06,-0.71,0.77,-5.05,-0.42,-1.66
0.06,-0.73,0.74,-5.69,-0.8,-0.85
0.07,-0.74,0.68,-5.86,-1.15,0.92
0.08,-0.74,0.63,-3.87,-1.05,1.2
0.08,-0.74,0.63,-3.87,-1.05,1.2
0.06,-0.72,0.7,-0.23,-0.77,1.13
0.03,-0.68,0.75,3.09,-0.68,1.16
0.04,-0.65,0.74,5.58,-0.5,0.69
0.05,-0.62,0.77,7.47,-0.33,-0.03
0.06,-0.59,0.81,8.62,-0.12,-0.43
0.06,-0.59,0.81,8.62,-0.12,-0.43
0.0,-0.53,0.84,8.43,0.01,0.43
-0.04,-0.52,0.83,6.66,-0.38,0.81
-0.04,-0.58,0.78,4.21,-1.15,0.36
-0.03,-0.63,0.75,1.85,-2.49,0.49
-0.0,-0.69,0.71,-0.07,-4.56,0.99
-0.0,-0.69,0.71,-0.07,-4.56,0.99
0.04,-0.72,0.68,-0.77,-7.04,1.81
