ax,ay,az,gx,gy,gz
-0.42,0.1,0.85,-3.02,-1.29,-1.47
-0.42,0.1,0.85,-2.75,-1.31,-1.71
-0.42,0.11,0.85,-2.28,-1.26,-1.86
-0.42,0.11,0.85,-1.67,-1.12,-1.96
-0.43,0.12,0.86,-1.01,-0.93,-2.02
-0.43,0.12,0.86,-1.01,-0.93,-2.02
-0.43,0.12,0.85,-0.39,-0.76,-2.03
-0.43,0.13,0.86,0.14,-0.67,-2.04
-0.44,0.14,0.86,0.6,-0.61,-2.06
-0.44,0.14,0.86,0.9,-0.64,-2.12
-0.44,0.14,0.86,1.05,-0.81,-2.2
-0.44,0.14,0.86,1.05,-0.81,-2.2
-0.44,0.14,0.86,1.04,-1.06,-2.27
-0.43,0.14,0.85,0.92,-1.39,-2.38
-0.43,0.13,0.85,0.71,-1.76,-2.54
-0.43,0.13,0.85,0.47,-2.22,-2.74
-0.43,0.12,0.84,0.25,-2.67,-2.91
-0.43,0.12,0.84,0.25,-2.67,-2.91
-0.42,0.12,0.84,0.09,-3.03,-3.12
-0.42,0.12,0.84,-0.06,-3.26,-3.35
-0.41,0.12,0.84,-0.14,-3.3,-3.64
-0.41,0.13,0.84,-0.15,-3.15,-3.95
-0.41,0.13,0.84,-0.11,-2.79,-4.24
-0.41,0.13,0.84,-0.11,-2.79,-4.24
-0.41,0.14,0.84,-0.16,-2.25,-4.48
-0.42,0.14,0.84,-0.35,-1.72,-4.68
-0.42,0.13,0.84,-0.59,-1.28,-4.9
-0.42,0.13,0.84,-0.76,-0.95,-5.09
-0.43,0.13,0.84,-0.82,-0.79,-5.25
-0.43,0.13,0.84,-0.82,-0.79,-5.25
-0.43,0.14,0.85,-0.85,-0.79,-5.37
-0.43,0.14,0.85,-0.89,-0.91,-5.5
-0.43,0.14,0.85,-0.96,-1.17,-5.64
-0.43,0.15,0.85,-1.1,-1.51,-5.77
-0.43,0.15,0.85,-1.33,-1.89,-5.91
-0.43,0.15,0.85,-1.33,-1.89,-5.91
-0.42,0.14,0.85,-1.63,-2.22,-6.06
-0.41,0.14,0.84,-1.98,-2.51,-6.23
-0.41,0.13,0.84,-2.29,-2.7,-6.32
-0.4,0.13,0.84,-2.5,-2.79,-6.32
-0.4,0.12,0.84,-2.55,-2.68,-6.28
-0.4,0.12,0.84,-2.55,-2.68,-6.28
-0.4,0.12,0.83,-2.44,-2.42,-6.22
-0.4,0.12,0.83,-2.09,-1.99,-6.13
-0.4,0.12,0.83,-1.53,-1.4,-6.01
-0.41,0.13,0.84,-0.79,-0.71,-5.88
-0.41,0.13,0.84,0.04,0.07,-5.79
-0.41,0.13,0.84,0.04,0.07,-5.79
-0.42,0.15,0.85,0.86,0.8,-5.73
-0.43,0.16,0.85,1.5,1.27,-5.71
-0.43,0.17,0.86,1.8,1.44,-5.66
-0.44,0.17,0.87,1.73,1.31,-5.62
-0.44,0.17,0.87,1.31,0.95,-5.61
-0.44,0.17,0.87,1.31,0.95,-5.61
-0.43,0.16,0.86,0.68,0.43,-5.62
-0.43,0.16,0.86,0.03,-0.16,-5.63
-0.42,0.15,0.86,-0.59,-0.66,-5.66
-0.41,0.14,0.86,-1.2,-1.03,-5.66
-0.41,0.13,0.86,-1.74,-1.22,-5.63
-0.41,0.13,0.86,-1.74,-1.22,-5.63
-0.41,0.12,0.86,-2.13,-1.23,-5.61
-0.41,0.12,0.86,-2.25,-1.06,-5.59
-0.41,0.12,0.85,-2.04,-0.83,-5.52
-0.41,0.13,0.86,-1.59,-0.58,-5.41
-0.41,0.14,0.86,-1.04,-0.42,-5.25
-0.41,0.14,0.86,-1.04,-0.42,-5.25
-0.4,0.14,0.86,-0.52,-0.33,-5.07
-0.4,0.15,0.86,-0.01,-0.34,-4.85
-0.39,0.16,0.87,0.39,-0.41,-4.66
-0.38,0.17,0.88,0.64,-0.51,-4.54
-0.37,0.18,0.88,0.7,-0.59,-4.5
-0.37,0.18,0.88,0.7,-0.59,-4.5
-0.37,0.18,0.89,0.51,-0.64,-4.51
-0.37,0.18,0.89,0.15,-0.71,-4.54
-0.36,0.17,0.89,-0.27,-0.79,-4.57
-0.36,0.18,0.89,-0.7,-0.89,-4.59
-0.34,0.19,0.9,-0.99,-0.93,-4.62
-0.34,0.19,0.9,-0.99,-0.93,-4.62
-0.32,0.21,0.91,-1.06,-0.87,-4.7
-0.3,0.24,0.93,-0.92,-0.63,-4.83
-0.28,0.27,0.95,-0.72,-0.24,-4.93
-0.26,0.31,0.97,-0.53,0.26,-5.06
-0.24,0.36,1.0,-0.36,0.8,-5.21
-0.24,0.36,1.0,-0.36,0.8,-5.21
-0.24,0.4,1.02,-0.3,1.37,-5.31
-0.26,0.45,1.05,-0.56,1.85,-5.19
-0.32,0.49,1.07,-1.26,2.1,-4.92
-0.37,0.52,1.08,-2.46,1.99,-4.68
-0.4,0.54,1.1,-4.09,1.38,-4.46
-0.4,0.54,1.1,-4.09,1.38,-4.46
-0.41,0.56,1.1,-6.08,0.3,-4.07
-0.41,0.57,1.1,-8.41,-1.26,-3.27
-0.41,0.56,1.08,-11.08,-3.28,-1.89
-0.42,0.53,1.06,-13.86,-5.73,0.13
-0.41,0.49,1.02,-16.37,-8.6,2.7
-0.41,0.49,1.02,-16.37,-8.6,2.7
-0.4,0.44,0.98,-18.19,-11.81,5.7
-0.37,0.4,0.95,-19.0,-15.09,9.04
-0.34,0.39,0.93,-18.73,-18.18,12.62
-0.28,0.39,0.92,-17.48,-20.73,16.24
-0.22,0.39,0.92,-15.49,-22.45,19.74
-0.22,0.39,0.92,-15.49,-22.45,19.74
-0.2,0.41,0.92,-13.13,-23.35,23.1
-0.18,0.43,0.91,-10.73,-23.53,26.27
-0.15,0.46,0.91,-8.44,-23.1,29.0
-0.13,0.5,0.92,-6.45,-22.22,31.23
-0.13,0.54,0.92,-4.95,-21.11,33.12
-0.13,0.54,0.92,-4.95,-21.11,33.12
-0.12,0.58,0.92,-4.1,-19.99,34.71
-0.11,0.62,0.93,-3.94,-18.92,35.97
-0.1,0.65,0.94,-4.29,-18.0,36.95
-0.07,0.71,0.95,-4.97,-17.07,37.59
-0.04,0.77,0.97,-5.84,-16.04,37.71
-0.04,0.77,0.97,-5.84,-16.04,37.71
-0.0,0.82,0.98,-7.06,-15.05,37.54
0.04,0.87,0.99,-8.9,-14.12,37.51
0.09,0.9,0.98,-11.52,-13.23,37.7
0.08,0.94,0.98,-14.95,-12.36,38.1
0.08,0.86,0.92,-19.63,-11.69,38.02
0.08,0.86,0.92,-19.63,-11.69,38.02
0.01,0.78,0.87,-23.69,-10.97,39.23
-0.08,0.73,0.82,-26.72,-10.14,41.37
-0.11,0.7,0.8,-28.17,-9.74,43.46
-0.14,0.7,0.82,-28.14,-9.16,45.34
-0.19,0.73,0.84,-27.14,-8.01,47.15
-0.19,0.73,0.84,-27.14,-8.01,47.15
-0.23,0.77,0.87,-25.99,-6.42,48.64
-0.27,0.78,0.88,-25.31,-4.44,49.76
-0.36,0.77,0.89,-25.43,-2.34,50.93
-0.49,0.73,0.86,-26.59,-0.61,52.19
-0.62,0.67,0.84,-28.76,0.3,53.39
-0.62,0.67,0.84,-28.76,0.3,53.39
-0.73,0.59,0.82,-31.84,0.07,54.63
-0.81,0.49,0.81,-35.68,-1.14,56.06
-0.85,0.37,0.79,-40.13,-3.03,57.78
-0.88,0.24,0.77,-44.87,-5.28,59.88
-0.88,0.24,0.77,-49.44,-7.63,62.45
-0.9,0.11,0.76,-49.44,-7.63,62.45
-0.9,-0.01,0.74,-53.34,-9.82,65.27
-0.9,-0.13,0.72,-56.11,-11.52,68.18
-0.89,-0.24,0.7,-57.54,-12.64,71.08
-0.87,-0.34,0.68,-57.64,-13.3,73.98
-0.87,-0.34,0.68,-56.33,-13.63,76.75
-0.85,-0.41,0.67,-56.33,-13.63,76.75
-0.85,-0.48,0.66,-53.6,-13.62,79.26
-0.85,-0.53,0.66,-49.66,-13.37,81.23
-0.85,-0.58,0.66,-44.71,-13.02,82.44
-0.84,-0.6,0.65,-39.02,-12.77,82.72
-0.84,-0.6,0.65,-39.02,-12.77,82.72
-0.81,-0.6,0.67,-32.84,-12.67,82.04
-0.78,-0.57,0.7,-26.51,-12.71,80.52
-0.75,-0.54,0.73,-20.67,-12.84,78.3
-0.74,-0.49,0.76,-15.94,-12.97,75.5
-0.73,-0.47,0.78,-12.69,-13.03,72.13
-0.73,-0.47,0.78,-12.69,-13.03,72.13
-0.71,-0.45,0.78,-11.08,-13.0,68.31
-0.68,-0.44,0.79,-11.12,-12.96,64.33
-0.66,-0.43,0.8,-12.6,-12.87,60.38
-0.63,-0.44,0.78,-15.13,-12.66,56.5
-0.62,-0.45,0.76,-18.11,-12.42,52.61
-0.62,-0.45,0.76,-18.11,-12.42,52.61
-0.61,-0.46,0.74,-21.07,-12.29,48.66
-0.59,-0.47,0.72,-23.68,-12.41,44.67
-0.56,-0.47,0.7,-25.64,-12.8,40.61
-0.52,-0.47,0.69,-26.79,-13.47,36.53
-0.47,-0.45,0.69,-27.32,-14.28,32.72
-0.47,-0.45,0.69,-27.32,-14.28,32.72
-0.43,-0.43,0.7,-27.59,-15.03,29.57
-0.39,-0.42,0.69,-27.75,-15.59,27.0
-0.37,-0.44,0.69,-27.56,-15.76,24.81
-0.38,-0.48,0.69,-26.88,-15.76,23.01
-0.36,-0.51,0.68,-25.2,-15.59,20.92
-0.36,-0.51,0.68,-25.2,-15.59,20.92
-0.32,-0.52,0.67,-22.31,-14.8,19.31
-0.34,-0.5,0.72,-18.21,-13.26,18.71
-0.39,-0.47,0.76,-13.61,-10.86,18.26
-0.45,-0.45,0.79,-9.21,-7.93,17.0
-0.49,-0.43,0.81,-5.33,-4.96,14.88
-0.49,-0.43,0.81,-5.33,-4.96,14.88
-0.52,-0.42,0.85,-2.12,-2.16,12.04
-0.53,-0.4,0.89,0.03,0.33,8.92
-0.54,-0.4,0.9,0.92,2.25,5.83
-0.59,-0.4,0.91,1.04,3.44,2.57
-0.56,-0.51,0.93,1.24,3.44,-2.09
-0.56,-0.51,0.93,1.24,3.44,-2.09
-0.57,-0.53,0.93,1.85,2.72,-5.94
-0.56,-0.5,0.87,2.43,1.07,-8.57
-0.55,-0.5,0.92,4.07,-0.85,-11.79
-0.54,-0.54,0.94,6.33,-2.79,-15.11
-0.53,-0.56,0.9,8.94,-4.8,-18.12
-0.53,-0.56,0.9,8.94,-4.8,-18.12
-0.51,-0.57,0.89,12.35,-6.55,-20.8
-0.49,-0.58,0.92,16.78,-7.6,-23.04
-0.49,-0.59,0.96,21.54,-7.98,-24.44
-0.52,-0.58,0.99,25.96,-7.9,-25.39
-0.55,-0.57,0.99,29.6,-7.56,-26.36
-0.55,-0.57,0.99,29.6,-7.56,-26.36
-0.59,-0.58,0.96,32.61,-7.18,-27.22
-0.64,-0.58,0.94,35.36,-6.95,-28.29
-0.68,-0.59,0.94,38.03,-7.11,-30.25
-0.69,-0.58,0.94,40.67,-7.68,-33.28
-0.71,-0.58,0.94,43.05,-8.56,-36.79
-0.71,-0.58,0.94,43.05,-8.56,-36.79
-0.73,-0.56,0.94,44.69,-9.92,-40.55
-0.75,-0.54,0.93,45.35,-12.07,-44.91
-0.75,-0.52,0.93,45.22,-14.89,-49.95
-0.76,-0.5,0.92,44.4,-18.19,-55.19
-0.77,-0.46,0.92,42.7,-21.85,-60.28
-0.77,-0.46,0.92,42.7,-21.85,-60.28
-0.77,-0.41,0.91,39.93,-25.81,-65.49
-0.74,-0.37,0.92,36.13,-29.92,-71.34
-0.68,-0.35,0.93,31.44,-33.67,-77.95
-0.61,-0.34,0.94,25.98,-36.65,-84.9
-0.55,-0.32,0.95,19.85,-38.66,-91.57
-0.55,-0.32,0.95,19.85,-38.66,-91.57
-0.53,-0.3,0.94,13.2,-39.75,-97.83
-0.52,-0.31,0.94,6.33,-40.2,-104.16
-0.5,-0.35,0.92,-0.24,-40.12,-110.57
-0.5,-0.38,0.9,-6.07,-39.62,-116.27
-0.51,-0.41,0.89,-10.86,-39.11,-121.46
-0.51,-0.41,0.89,-10.86,-39.11,-121.46
-0.51,-0.42,0.88,-14.02,-38.64,-126.77
-0.49,-0.41,0.88,-15.19,-38.14,-132.22
-0.45,-0.38,0.89,-14.47,-37.63,-137.24
-0.43,-0.34,0.9,-12.17,-37.11,-141.49
-0.43,-0.29,0.93,-8.82,-36.56,-145.05
-0.43,-0.29,0.93,-8.82,-36.56,-145.05
-0.43,-0.23,0.96,-5.06,-35.89,-148.06
-0.44,-0.16,0.97,-1.47,-35.18,-150.84
-0.44,-0.09,0.99,1.5,-34.53,-153.81
-0.42,-0.04,1.0,3.67,-33.68,-156.99
-0.42,-0.0,0.98,5.22,-32.47,-160.06
-0.42,-0.0,0.98,5.22,-32.47,-160.06
-0.41,0.03,0.95,6.75,-30.96,-162.94
-0.43,0.07,0.93,8.84,-29.17,-165.56
-0.43,0.12,0.92,11.72,-27.18,-167.87
-0.46,0.19,0.93,15.0,-25.2,-169.78
-0.48,0.28,0.94,17.98,-23.27,-171.37
-0.48,0.28,0.94,17.98,-23.27,-171.37
-0.5,0.38,0.94,20.14,-21.67,-172.63
-0.51,0.48,0.95,21.23,-20.31,-173.56
-0.52,0.57,0.97,21.2,-18.9,-174.06
-0.52,0.65,0.98,19.98,-17.06,-173.83
-0.52,0.72,0.99,17.4,-14.62,-172.39
-0.52,0.72,0.99,17.4,-14.62,-172.39
-0.54,0.78,0.96,13.29,-11.74,-169.95
-0.54,0.8,0.92,8.09,-8.87,-167.35
-0.52,0.79,0.89,2.74,-6.18,-164.86
-0.51,0.77,0.86,-2.05,-3.73,-162.06
-0.5,0.76,0.83,-5.8,-1.74,-158.76
-0.5,0.76,0.83,-5.8,-1.74,-158.76
-0.5,0.76,0.8,-8.18,-0.24,-155.16
-0.51,0.76,0.78,-8.99,0.87,-151.57
-0.51,0.75,0.76,-8.35,1.38,-148.26
-0.5,0.74,0.75,-6.58,1.19,-145.24
-0.47,0.74,0.74,-3.84,0.5,-142.41
-0.47,0.74,0.74,-3.84,0.5,-142.41
-0.43,0.76,0.75,-0.13,-0.4,-139.48
-0.37,0.78,0.77,4.06,-1.35,-136.24
-0.31,0.81,0.8,7.85,-2.23,-132.31
-0.27,0.83,0.81,10.42,-2.98,-127.6
-0.25,0.81,0.81,11.39,-3.53,-122.52
-0.25,0.81,0.81,11.39,-3.53,-122.52
-0.23,0.75,0.82,11.23,-3.67,-117.5
-0.22,0.71,0.84,10.52,-3.07,-112.71
-0.21,0.69,0.87,9.45,-1.57,-107.97
-0.23,0.69,0.88,7.88,0.8,-103.21
-0.25,0.67,0.9,5.65,3.6,-98.67
-0.25,0.67,0.9,5.65,3.6,-98.67
-0.28,0.64,0.9,2.92,6.23,-94.68
-0.29,0.6,0.92,-0.1,8.24,-91.13
-0.29,0.57,0.93,-3.3,9.46,-87.66
-0.3,0.53,0.93,-6.62,9.85,-84.08
-0.29,0.5,0.92,-9.86,9.3,-80.66
-0.29,0.5,0.92,-9.86,9.3,-80.66
-0.26,0.45,0.91,-12.63,7.86,-77.62
-0.22,0.4,0.91,-14.56,5.83,-74.81
-0.17,0.36,0.9,-15.45,3.7,-71.74
-0.14,0.33,0.9,-15.22,1.9,-68.15
-0.12,0.3,0.89,-13.92,0.51,-64.21
-0.12,0.3,0.89,-13.92,0.51,-64.21
-0.11,0.27,0.9,-11.69,-0.41,-60.1
-0.11,0.25,0.91,-8.71,-0.87,-55.87
-0.12,0.24,0.92,-5.26,-0.89,-51.58
-0.14,0.23,0.93,-1.4,-0.51,-47.38
-0.16,0.25,0.95,2.78,0.22,-43.42
-0.16,0.25,0.95,2.78,0.22,-43.42
-0.19,0.27,0.97,7.03,1.19,-39.77
-0.22,0.3,0.99,10.97,2.22,-36.53
-0.24,0.33,1.01,14.28,3.09,-33.79
-0.25,0.35,1.02,16.76,3.6,-31.48
-0.26,0.37,1.04,18.27,3.63,-29.5
-0.26,0.37,1.04,18.27,3.63,-29.5
-0.26,0.38,1.05,18.78,3.08,-27.64
-0.25,0.38,1.06,18.24,2.0,-25.81
-0.24,0.37,1.06,16.69,0.48,-23.85
-0.22,0.35,1.07,14.35,-1.36,-21.62
-0.19,0.31,1.07,11.67,-3.35,-19.02
-0.19,0.31,1.07,11.67,-3.35,-19.02
-0.18,0.27,1.06,9.1,-5.33,-16.0
-0.17,0.23,1.04,7.05,-7.14,-12.71
-0.18,0.2,1.02,5.88,-8.73,-9.41
-0.17,0.19,1.01,5.81,-10.26,-6.34
-0.16,0.19,1.01,6.81,-11.72,-3.62
-0.16,0.19,1.01,6.81,-11.72,-3.62
-0.15,0.21,1.01,8.66,-13.0,-1.19
-0.13,0.24,1.01,11.01,-14.03,1.0
-0.11,0.28,1.01,13.51,-14.75,2.99
-0.1,0.32,1.02,15.79,-15.13,4.81
-0.09,0.36,1.02,17.67,-15.1,6.47
-0.09,0.36,1.02,17.67,-15.1,6.47
-0.08,0.38,1.02,18.95,-14.71,8.08
-0.06,0.41,1.02,19.49,-14.1,9.79
-0.05,0.42,1.02,19.27,-13.31,11.69
-0.04,0.42,1.02,18.5,-12.35,13.75
-0.04,0.43,1.02,17.44,-11.19,15.88
-0.04,0.43,1.02,17.44,-11.19,15.88
-0.04,0.44,1.01,16.38,-9.98,17.87
-0.05,0.46,1.0,15.57,-8.86,19.61
-0.04,0.49,0.99,15.15,-7.92,20.98
-0.03,0.53,0.98,15.08,-7.2,21.95
-0.01,0.57,0.98,15.23,-6.72,22.64
-0.01,0.57,0.98,15.23,-6.72,22.64
-0.02,0.62,0.99,15.43,-6.45,23.14
-0.04,0.67,1.0,15.45,-6.4,23.6
-0.08,0.72,1.02,15.06,-6.47,24.25
-0.12,0.77,1.03,14.07,-6.52,25.18
-0.16,0.8,1.05,12.38,-6.43,26.43
-0.16,0.8,1.05,12.38,-6.43,26.43
-0.2,0.82,1.05,9.91,-6.18,28.06
-0.22,0.82,1.03,6.81,-5.78,30.06
-0.24,0.81,1.0,3.43,-5.41,32.45
-0.24,0.78,0.97,0.23,-5.31,35.18
-0.25,0.77,0.95,-2.49,-5.63,38.24
-0.25,0.77,0.95,-2.49,-5.63,38.24
-0.24,0.72,0.92,-5.0,-6.5,41.58
-0.23,0.64,0.89,-6.58,-7.76,45.67
-0.21,0.52,0.88,-6.8,-9.15,50.46
-0.2,0.41,0.86,-5.73,-10.89,55.82
-0.21,0.32,0.82,-3.13,-12.73,61.34
-0.21,0.32,0.82,-3.13,-12.73,61.34
-0.23,0.25,0.78,1.24,-14.66,66.31
-0.23,0.2,0.73,7.42,-16.7,70.26
-0.22,0.18,0.72,15.34,-18.97,73.2
-0.21,0.2,0.74,24.28,-21.4,75.18
-0.21,0.22,0.77,32.91,-24.04,76.21
-0.21,0.22,0.77,32.91,-24.04,76.21
-0.22,0.22,0.77,40.05,-26.91,76.6
-0.27,0.21,0.81,45.86,-29.44,76.94
-0.33,0.19,0.86,49.71,-31.48,76.91
-0.36,0.16,0.88,50.5,-33.42,76.15
-0.36,0.13,0.87,48.49,-35.29,74.64
-0.36,0.13,0.87,48.49,-35.29,74.64
-0.31,0.07,0.91,45.02,-36.24,72.43
-0.27,0.01,0.92,40.67,-35.34,70.42
-0.24,-0.07,0.95,36.57,-32.66,68.45
-0.25,-0.13,0.98,32.67,-27.52,66.21
-0.31,-0.14,0.97,28.27,-20.81,64.62
-0.31,-0.14,0.97,28.27,-20.81,64.62
-0.37,-0.14,0.97,23.02,-13.45,63.27
-0.4,-0.17,0.98,16.82,-6.12,61.73
-0.42,-0.2,0.97,9.8,0.71,60.44
-0.43,-0.26,0.94,2.72,6.52,58.84
-0.39,-0.37,0.91,-2.82,11.81,56.55
-0.39,-0.37,0.91,-2.82,11.81,56.55
-0.37,-0.46,0.9,-5.67,17.26,54.6
-0.4,-0.49,0.91,-6.42,22.47,53.29
-0.42,-0.49,0.93,-5.63,26.87,51.78
-0.42,-0.48,0.95,-3.37,30.75,50.12
-0.43,-0.45,0.98,-0.48,34.07,48.96
-0.43,-0.45,0.98,-0.48,34.07,48.96
-0.45,-0.41,1.0,2.09,36.59,48.15
-0.47,-0.37,1.01,4.24,38.45,47.21
-0.49,-0.32,1.02,6.3,39.89,45.81
-0.5,-0.26,1.04,8.32,40.99,43.99
-0.51,-0.18,1.06,9.78,41.65,42.0
-0.51,-0.18,1.06,9.78,41.65,42.0
-0.51,-0.11,1.09,9.81,41.64,40.0
-0.49,-0.07,1.1,7.83,40.86,38.14
-0.46,-0.08,1.1,3.7,39.34,36.76
-0.44,-0.12,1.08,-2.03,37.23,36.21
-0.43,-0.17,1.04,-8.19,34.85,36.27
-0.43,-0.17,1.04,-8.19,34.85,36.27
-0.42,-0.22,1.0,-13.74,32.37,36.38
-0.41,-0.26,0.95,-18.07,29.9,36.37
-0.4,-0.28,0.91,-20.93,27.45,36.27
-0.38,-0.29,0.88,-22.03,25.03,35.92
-0.36,-0.28,0.87,-21.32,22.76,35.15
-0.36,-0.28,0.87,-21.32,22.76,35.15
-0.32,-0.25,0.89,-19.16,20.82,34.12
-0.31,-0.19,0.91,-16.72,19.21,33.22
-0.31,-0.12,0.91,-15.1,17.75,32.47
-0.31,-0.1,0.91,-14.61,16.39,31.58
-0.3,-0.1,0.91,-15.26,15.18,30.61
-0.3,-0.1,0.91,-15.26,15.18,30.61
-0.3,-0.11,0.89,-16.87,14.19,29.63
-0.29,-0.13,0.86,-18.85,13.32,28.76
-0.29,-0.15,0.84,-20.75,12.62,27.73
-0.29,-0.17,0.82,-22.0,12.23,26.23
-0.28,-0.2,0.81,-22.12,12.32,24.29
-0.28,-0.2,0.81,-22.12,12.32,24.29
-0.26,-0.2,0.82,-20.98,13.02,22.23
-0.26,-0.18,0.84,-18.98,14.26,20.34
-0.26,-0.13,0.86,-16.98,15.71,18.85
-0.26,-0.09,0.88,-15.65,17.15,17.65
-0.26,-0.06,0.89,-15.3,18.43,16.72
-0.26,-0.06,0.89,-15.3,18.43,16.72
-0.28,-0.04,0.9,-16.03,19.4,15.97
-0.3,-0.04,0.89,-17.4,19.92,15.16
-0.31,-0.05,0.88,-18.93,20.11,14.29
-0.31,-0.06,0.88,-20.38,19.92,13.5
-0.3,-0.08,0.87,-21.6,19.32,13.03
-0.3,-0.08,0.87,-21.6,19.32,13.03
-0.28,-0.09,0.88,-22.33,18.6,13.03
-0.27,-0.09,0.89,-22.63,17.9,13.37
-0.27,-0.09,0.91,-22.89,17.12,13.68
-0.26,-0.11,0.92,-23.34,16.27,13.81
-0.25,-0.14,0.92,-23.93,15.52,14.0
-0.25,-0.14,0.92,-23.93,15.52,14.0
-0.26,-0.16,0.92,-24.5,15.01,14.58
-0.28,-0.18,0.9,-24.54,14.8,15.26
-0.29,-0.2,0.9,-23.59,14.8,15.25
-0.3,-0.18,0.9,-21.83,14.87,14.29
-0.3,-0.15,0.9,-19.84,14.71,12.49
-0.3,-0.15,0.9,-19.84,14.71,12.49
-0.28,-0.15,0.89,-17.69,14.46,10.23
-0.26,-0.14,0.89,-15.24,14.44,8.22
-0.26,-0.1,0.9,-12.82,14.55,6.98
-0.27,-0.06,0.91,-10.64,14.64,6.41
-0.27,-0.04,0.91,-8.73,14.48,5.63
-0.27,-0.04,0.91,-8.73,14.48,5.63
-0.27,-0.04,0.93,-7.09,14.23,4.63
-0.28,-0.03,0.95,-6.15,13.84,3.94
-0.29,-0.02,0.96,-6.19,13.08,3.38
-0.32,0.03,0.98,-7.08,12.04,2.5
-0.32,0.03,0.98,-9.01,10.49,0.63
-0.3,0.0,0.98,-9.01,10.49,0.63
-0.27,0.03,1.01,-12.18,8.98,-1.79
-0.22,-0.11,0.9,-16.78,7.12,-2.41
-0.26,-0.14,0.85,-18.1,7.15,-0.45
-0.32,-0.13,0.92,-16.95,7.75,0.13
-0.32,-0.13,0.92,-14.72,8.01,-1.88
-0.28,-0.1,0.93,-14.72,8.01,-1.88
-0.27,-0.05,0.92,-12.41,8.45,-3.94
-0.3,-0.02,0.94,-10.47,8.72,-5.48
-0.29,-0.01,0.95,-9.2,8.72,-7.41
-0.27,0.01,0.94,-8.38,8.69,-9.22
-0.27,0.01,0.94,-7.8,8.78,-10.27
-0.28,0.03,0.94,-7.8,8.78,-10.27
-0.3,0.05,0.94,-7.54,8.9,-10.8
-0.31,0.04,0.93,-7.6,8.84,-11.3
-0.3,0.02,0.92,-7.8,8.46,-11.62
-0.29,0.01,0.92,-7.89,7.94,-11.55
-0.29,0.01,0.92,-7.89,7.94,-11.55
-0.3,0.0,0.92,-7.85,7.31,-10.97
-0.31,0.01,0.91,-7.72,6.62,-10.11
-0.31,0.01,0.91,-7.52,5.78,-9.52
-0.31,0.01,0.91,-7.19,4.68,-9.56
-0.3,-0.01,0.9,-6.58,3.51,-10.34
-0.3,-0.01,0.9,-6.58,3.51,-10.34
-0.28,-0.02,0.92,-5.51,2.56,-11.59
-0.28,0.0,0.94,-4.44,2.09,-12.68
-0.28,0.03,0.94,-3.95,1.87,-13.16
-0.28,0.04,0.93,-4.0,1.81,-13.22
-0.27,0.02,0.93,-4.24,2.09,-13.06
-0.27,0.02,0.93,-4.24,2.09,-13.06
-0.27,0.01,0.93,-4.54,2.73,-12.47
-0.3,0.01,0.92,-4.91,3.49,-11.8
-0.3,0.0,0.91,-5.2,4.21,-11.44
-0.3,-0.0,0.92,-5.35,4.85,-11.31
-0.3,-0.0,0.92,-5.5,5.3,-11.23
-0.3,-0.0,0.92,-5.5,5.3,-11.23
-0.3,-0.01,0.9,-5.57,5.61,-11.14
-0.3,-0.02,0.89,-5.12,5.89,-11.13
-0.3,-0.02,0.89,-3.78,6.21,-11.18
-0.3,-0.01,0.91,-1.8,6.56,-11.26
-0.31,0.02,0.92,0.38,6.92,-11.36
-0.31,0.02,0.92,0.38,6.92,-11.36
-0.31,0.05,0.94,2.27,7.16,-11.45
-0.32,0.07,0.96,3.41,7.2,-11.52
-0.32,0.09,0.97,3.6,7.0,-11.45
-0.32,0.1,0.97,2.83,6.65,-11.12
-0.33,0.09,0.96,1.36,6.12,-10.67
-0.33,0.09,0.96,1.36,6.12,-10.67
-0.33,0.08,0.96,-0.4,5.46,-10.31
-0.33,0.05,0.94,-2.03,4.72,-10.17
-0.32,0.04,0.93,-3.29,3.99,-10.16
-0.31,0.03,0.93,-4.1,3.33,-10.23
-0.3,0.02,0.93,-4.42,2.76,-10.24
-0.3,0.02,0.93,-4.42,2.76,-10.24
-0.3,0.02,0.93,-4.44,2.34,-10.12
-0.31,0.03,0.93,-4.17,2.06,-9.88
-0.31,0.04,0.93,-3.72,1.81,-9.61
-0.31,0.06,0.93,-3.25,1.53,-9.34
-0.31,0.07,0.93,-2.88,1.21,-9.1
-0.31,0.07,0.93,-2.88,1.21,-9.1
-0.31,0.07,0.93,-2.75,0.87,-8.85
-0.31,0.07,0.93,-2.84,0.45,-8.56
-0.31,0.07,0.92,-3.16,-0.03,-8.24
-0.3,0.06,0.91,-3.56,-0.52,-7.91
