ax,ay,az,gx,gy,gz
-0.49,0.08,0.81,-2.44,-1.48,-4.27
-0.49,0.08,0.81,-2.14,-1.79,-4.07
-0.49,0.08,0.8,-1.8,-1.95,-3.87
-0.49,0.08,0.8,-1.4,-1.97,-3.66
-0.49,0.08,0.8,-0.98,-1.87,-3.48
-0.49,0.08,0.8,-0.98,-1.87,-3.48
-0.5,0.09,0.8,-0.59,-1.66,-3.36
-0.5,0.09,0.8,-0.22,-1.39,-3.34
-0.49,0.1,0.8,0.09,-1.09,-3.38
-0.49,0.1,0.8,0.38,-0.76,-3.43
-0.49,0.11,0.81,0.52,-0.45,-3.48
-0.49,0.11,0.81,0.52,-0.45,-3.48
-0.49,0.11,0.81,0.43,-0.22,-3.54
-0.49,0.11,0.81,0.11,-0.09,-3.57
-0.49,0.1,0.81,-0.32,-0.11,-3.57
-0.49,0.1,0.81,-0.75,-0.25,-3.53
-0.49,0.09,0.81,-1.18,-0.45,-3.41
-0.49,0.09,0.81,-1.18,-0.45,-3.41
-0.48,0.08,0.81,-1.57,-0.68,-3.23
-0.48,0.07,0.8,-1.81,-0.91,-3.0
-0.47,0.06,0.8,-1.84,-1.18,-2.7
-0.48,0.06,0.8,-1.68,-1.36,-2.38
-0.47,0.05,0.8,-1.36,-1.42,-2.14
-0.47,0.05,0.8,-1.36,-1.42,-2.14
-0.47,0.05,0.8,-0.88,-1.34,-1.97
-0.48,0.06,0.8,-0.25,-1.08,-1.88
-0.48,0.07,0.81,0.44,-0.68,-1.9
-0.5,0.08,0.81,1.06,-0.22,-2.08
-0.51,0.09,0.81,1.5,0.22,-2.37
-0.51,0.09,0.81,1.5,0.22,-2.37
-0.51,0.11,0.82,1.7,0.51,-2.77
-0.51,0.12,0.83,1.53,0.53,-3.23
-0.51,0.13,0.83,0.9,0.35,-3.65
-0.51,0.12,0.82,-0.13,0.0,-4.05
-0.51,0.11,0.82,-1.33,-0.46,-4.38
-0.51,0.11,0.82,-1.33,-0.46,-4.38
-0.5,0.09,0.81,-2.46,-0.95,-4.6
-0.49,0.08,0.8,-3.35,-1.39,-4.72
-0.49,0.07,0.8,-3.87,-1.73,-4.7
-0.48,0.06,0.79,-4.0,-1.96,-4.6
-0.48,0.05,0.79,-3.69,-2.1,-4.37
-0.48,0.05,0.79,-3.69,-2.1,-4.37
-0.48,0.05,0.79,-2.97,-2.12,-4.02
-0.48,0.06,0.8,-1.95,-2.04,-3.62
-0.48,0.07,0.8,-0.78,-1.86,-3.23
-0.48,0.08,0.8,0.37,-1.6,-2.93
-0.48,0.08,0.81,1.39,-1.26,-2.74
-0.48,0.08,0.81,1.39,-1.26,-2.74
-0.49,0.1,0.82,2.21,-0.84,-2.62
-0.5,0.11,0.82,2.67,-0.42,-2.64
-0.51,0.11,0.82,2.73,-0.11,-2.79
-0.51,0.12,0.82,2.37,0.06,-3.06
-0.51,0.12,0.82,1.7,0.06,-3.41
-0.5,0.12,0.82,1.7,0.06,-3.41
-0.5,0.11,0.82,0.81,-0.1,-3.78
-0.5,0.1,0.82,-0.17,-0.33,-4.13
-0.49,0.09,0.81,-1.1,-0.61,-4.47
-0.48,0.08,0.81,-1.89,-0.84,-4.75
-0.48,0.08,0.81,-2.43,-0.97,-4.91
-0.48,0.07,0.8,-2.43,-0.97,-4.91
-0.48,0.07,0.8,-2.67,-0.95,-4.96
-0.48,0.07,0.8,-2.62,-0.83,-4.92
-0.49,0.08,0.81,-2.33,-0.67,-4.83
-0.5,0.09,0.81,-1.85,-0.53,-4.77
-0.5,0.09,0.81,-1.85,-0.53,-4.77
-0.5,0.1,0.82,-1.38,-0.46,-4.78
-0.49,0.1,0.82,-1.1,-0.49,-4.81
-0.49,0.11,0.83,-1.05,-0.55,-4.83
-0.48,0.1,0.82,-1.21,-0.61,-4.83
-0.48,0.09,0.81,-1.49,-0.66,-4.8
-0.48,0.09,0.81,-1.49,-0.66,-4.8
-0.48,0.08,0.8,-1.72,-0.74,-4.73
-0.48,0.07,0.8,-1.75,-0.82,-4.66
-0.48,0.07,0.8,-1.55,-0.92,-4.65
-0.47,0.08,0.79,-1.21,-1.08,-4.61
-0.47,0.08,0.8,-0.79,-1.22,-4.47
-0.47,0.08,0.8,-0.79,-1.22,-4.47
-0.47,0.08,0.79,-0.4,-1.31,-4.26
-0.47,0.08,0.8,-0.07,-1.23,-4.05
-0.47,0.07,0.79,0.26,-0.91,-3.89
-0.48,0.08,0.79,0.6,-0.42,-3.78
-0.48,0.09,0.8,0.9,0.21,-3.72
-0.48,0.09,0.8,0.9,0.21,-3.72
-0.49,0.1,0.8,1.02,0.86,-3.73
-0.5,0.11,0.81,0.83,1.39,-3.78
-0.5,0.1,0.81,0.38,1.74,-3.8
-0.5,0.1,0.81,-0.17,1.87,-3.82
-0.5,0.09,0.81,-0.8,1.77,-3.8
-0.5,0.09,0.81,-0.8,1.77,-3.8
-0.5,0.08,0.81,-1.37,1.48,-3.74
-0.49,0.08,0.81,-1.78,1.12,-3.68
-0.49,0.07,0.81,-1.97,0.78,-3.6
-0.48,0.06,0.82,-1.94,0.57,-3.53
-0.48,0.06,0.82,-1.74,0.55,-3.4
-0.48,0.06,0.82,-1.74,0.55,-3.4
-0.48,0.06,0.82,-1.4,0.65,-3.22
-0.49,0.07,0.82,-0.98,0.8,-3.04
-0.5,0.07,0.82,-0.56,0.89,-2.89
-0.49,0.08,0.83,-0.21,0.84,-2.81
-0.49,0.08,0.83,-0.04,0.69,-2.82
-0.49,0.08,0.83,-0.04,0.69,-2.82
-0.49,0.08,0.83,0.0,0.48,-2.87
-0.49,0.08,0.83,-0.11,0.29,-2.99
-0.49,0.08,0.82,-0.31,0.16,-3.18
-0.48,0.08,0.82,-0.58,0.06,-3.44
-0.48,0.07,0.82,-0.87,0.02,-3.69
-0.48,0.07,0.82,-0.87,0.02,-3.69
-0.49,0.06,0.82,-1.15,0.05,-3.93
-0.49,0.06,0.82,-1.33,0.13,-4.15
-0.48,0.05,0.81,-1.33,0.26,-4.41
-0.48,0.05,0.81,-1.11,0.42,-4.63
-0.48,0.06,0.81,-0.66,0.51,-4.76
-0.48,0.06,0.81,-0.66,0.51,-4.76
-0.49,0.07,0.82,-0.11,0.51,-4.84
-0.49,0.08,0.82,0.36,0.35,-4.93
-0.49,0.08,0.82,0.65,0.04,-4.99
-0.48,0.08,0.82,0.74,-0.4,-5.05
-0.48,0.09,0.82,0.63,-0.88,-5.12
-0.48,0.09,0.82,0.63,-0.88,-5.12
-0.49,0.08,0.82,0.34,-1.29,-5.25
-0.49,0.08,0.81,-0.02,-1.6,-5.47
-0.48,0.08,0.81,-0.45,-1.78,-5.73
-0.47,0.08,0.82,-0.9,-1.79,-5.99
-0.47,0.07,0.81,-1.33,-1.64,-6.27
-0.47,0.07,0.81,-1.33,-1.64,-6.27
-0.46,0.06,0.81,-1.71,-1.38,-6.49
-0.47,0.06,0.81,-1.85,-1.06,-6.63
-0.46,0.06,0.81,-1.75,-0.65,-6.73
-0.46,0.06,0.81,-1.43,-0.25,-6.76
-0.46,0.07,0.82,-0.98,0.15,-6.68
-0.46,0.07,0.82,-0.98,0.15,-6.68
-0.48,0.08,0.82,-0.43,0.52,-6.5
-0.49,0.09,0.83,0.14,0.87,-6.34
-0.49,0.1,0.84,0.63,1.06,-6.28
-0.47,0.11,0.85,0.99,1.14,-6.34
-0.45,0.13,0.86,1.15,1.16,-6.4
-0.45,0.13,0.86,1.15,1.16,-6.4
-0.44,0.15,0.88,1.08,1.19,-6.45
-0.43,0.16,0.9,0.65,1.24,-6.46
-0.42,0.18,0.91,-0.14,1.29,-6.48
-0.4,0.2,0.93,-1.1,1.48,-6.6
-0.4,0.22,0.97,-2.05,1.87,-6.79
-0.4,0.22,0.97,-2.05,1.87,-6.79
-0.42,0.26,1.0,-3.2,2.52,-6.98
-0.45,0.3,1.02,-4.67,3.35,-7.3
-0.45,0.35,1.06,-6.6,4.25,-7.85
-0.44,0.38,1.09,-9.11,5.08,-8.58
-0.43,0.4,1.12,-12.32,5.76,-9.2
-0.43,0.4,1.12,-12.32,5.76,-9.2
-0.44,0.4,1.13,-16.26,6.16,-9.57
-0.45,0.39,1.12,-20.62,6.07,-9.65
-0.44,0.38,1.11,-24.92,5.34,-9.45
-0.4,0.38,1.1,-28.73,4.02,-8.95
-0.34,0.39,1.11,-31.79,2.32,-8.29
-0.34,0.39,1.11,-31.79,2.32,-8.29
-0.28,0.4,1.12,-33.95,0.61,-7.65
-0.22,0.43,1.13,-35.16,-0.89,-7.14
-0.17,0.45,1.13,-35.44,-2.06,-6.76
-0.14,0.48,1.13,-34.9,-3.03,-6.31
-0.15,0.52,1.12,-33.9,-4.01,-5.58
-0.15,0.52,1.12,-33.9,-4.01,-5.58
-0.17,0.53,1.1,-32.71,-5.28,-4.59
-0.18,0.53,1.06,-31.57,-7.2,-3.39
-0.16,0.53,1.02,-30.21,-9.67,-1.94
-0.14,0.55,1.0,-28.29,-12.42,-0.3
-0.15,0.58,0.98,-25.89,-15.15,1.36
-0.15,0.58,0.98,-25.89,-15.15,1.36
-0.18,0.63,0.96,-23.34,-17.59,2.76
-0.17,0.68,0.94,-20.99,-19.65,3.67
-0.17,0.74,0.94,-19.09,-21.12,4.05
-0.2,0.79,0.94,-17.77,-21.66,3.96
-0.25,0.85,0.94,-17.35,-21.28,3.4
-0.25,0.85,0.94,-17.35,-21.28,3.4
-0.3,0.89,0.92,-18.36,-20.4,2.46
-0.31,0.9,0.88,-21.13,-19.47,1.47
-0.28,0.86,0.84,-25.46,-18.72,0.92
-0.24,0.8,0.8,-30.65,-18.11,1.22
-0.24,0.72,0.73,-35.75,-17.22,2.37
-0.24,0.72,0.73,-35.75,-17.22,2.37
-0.28,0.62,0.67,-39.54,-15.88,4.7
-0.3,0.52,0.63,-41.8,-14.9,8.2
-0.33,0.43,0.59,-42.31,-14.03,12.66
-0.37,0.37,0.54,-40.88,-13.15,17.85
-0.43,0.33,0.53,-37.44,-12.29,23.32
-0.43,0.33,0.53,-37.44,-12.29,23.32
-0.51,0.31,0.54,-31.87,-10.85,28.74
-0.64,0.39,0.59,-25.08,-8.88,33.54
-0.65,0.35,0.6,-19.18,-6.95,36.54
-0.67,0.35,0.62,-13.92,-4.31,40.34
-0.7,0.33,0.65,-10.44,-1.58,45.21
-0.7,0.33,0.65,-10.44,-1.58,45.21
-0.72,0.26,0.67,-8.71,1.07,50.53
-0.77,0.17,0.66,-8.68,3.62,56.03
-0.85,0.05,0.65,-9.71,6.2,61.54
-0.94,-0.06,0.63,-11.42,8.5,66.56
-1.0,-0.16,0.6,-13.07,10.27,70.47
-1.0,-0.16,0.6,-13.07,10.27,70.47
-1.02,-0.26,0.59,-13.85,11.61,73.09
-1.02,-0.33,0.6,-13.53,12.54,74.72
-1.02,-0.36,0.62,-12.37,12.96,75.94
-1.01,-0.38,0.63,-10.89,12.75,76.6
-0.98,-0.4,0.66,-9.34,12.07,76.6
-0.98,-0.4,0.66,-9.34,12.07,76.6
-0.95,-0.42,0.69,-8.06,11.0,76.09
-0.92,-0.45,0.7,-7.32,9.6,75.34
-0.9,-0.48,0.71,-7.1,7.95,74.49
-0.89,-0.5,0.71,-7.32,6.14,73.43
-0.87,-0.53,0.72,-8.02,4.19,72.06
-0.87,-0.53,0.72,-8.02,4.19,72.06
-0.85,-0.55,0.72,-9.12,2.27,70.38
-0.83,-0.57,0.73,-10.39,0.58,68.42
-0.81,-0.58,0.73,-11.76,-0.73,66.29
-0.8,-0.59,0.73,-13.19,-1.66,64.02
-0.79,-0.59,0.72,-14.58,-2.26,61.57
-0.79,-0.59,0.72,-14.58,-2.26,61.57
-0.79,-0.59,0.71,-15.72,-2.7,58.92
-0.77,-0.58,0.72,-16.58,-3.13,56.11
-0.75,-0.57,0.72,-17.24,-3.75,53.28
-0.73,-0.55,0.73,-17.78,-4.53,50.59
-0.72,-0.54,0.73,-18.32,-5.45,48.18
-0.72,-0.54,0.73,-18.32,-5.45,48.18
-0.71,-0.53,0.73,-18.83,-6.6,46.16
-0.7,-0.53,0.73,-19.35,-7.92,44.43
-0.68,-0.54,0.72,-19.88,-9.46,42.86
-0.66,-0.55,0.73,-20.22,-11.17,41.36
-0.64,-0.57,0.73,-20.19,-12.88,39.87
-0.64,-0.57,0.73,-20.19,-12.88,39.87
-0.63,-0.58,0.75,-19.72,-14.33,38.38
-0.62,-0.6,0.76,-18.86,-15.38,36.69
-0.62,-0.61,0.77,-17.74,-15.93,34.72
-0.63,-0.61,0.78,-16.51,-15.96,32.54
-0.64,-0.6,0.77,-15.19,-15.71,30.18
-0.64,-0.6,0.77,-15.19,-15.71,30.18
-0.65,-0.61,0.76,-13.44,-15.27,27.4
-0.66,-0.63,0.76,-10.96,-14.81,23.91
-0.65,-0.65,0.78,-7.96,-14.37,19.89
-0.69,-0.58,0.82,-4.98,-13.97,15.99
-0.65,-0.59,0.79,-3.38,-14.16,11.32
-0.65,-0.59,0.79,-3.38,-14.16,11.32
-0.65,-0.63,0.75,-1.69,-14.38,7.35
-0.68,-0.68,0.73,1.08,-14.67,4.06
-0.7,-0.68,0.72,5.48,-15.71,0.8
-0.7,-0.64,0.73,11.13,-17.23,-2.96
-0.69,-0.6,0.8,17.09,-19.13,-7.08
-0.69,-0.6,0.8,17.09,-19.13,-7.08
-0.65,-0.57,0.86,21.9,-21.13,-11.3
-0.63,-0.54,0.87,24.74,-22.9,-14.92
-0.62,-0.56,0.87,26.31,-24.16,-18.25
-0.62,-0.61,0.87,27.61,-24.79,-21.79
-0.63,-0.64,0.88,28.89,-24.8,-25.36
-0.63,-0.64,0.88,28.89,-24.8,-25.36
-0.66,-0.65,0.89,30.01,-24.35,-28.56
-0.7,-0.65,0.88,30.97,-23.71,-31.73
-0.71,-0.66,0.86,32.06,-23.25,-35.38
-0.71,-0.66,0.87,33.51,-23.25,-39.59
-0.7,-0.65,0.88,35.13,-23.74,-44.09
-0.7,-0.65,0.88,35.13,-23.74,-44.09
-0.69,-0.62,0.87,36.59,-24.69,-48.58
-0.67,-0.58,0.85,37.74,-26.04,-53.02
-0.63,-0.54,0.83,38.63,-27.81,-57.78
-0.59,-0.49,0.82,39.45,-29.87,-63.2
-0.55,-0.44,0.84,40.19,-31.89,-69.13
-0.55,-0.44,0.84,40.19,-31.89,-69.13
-0.55,-0.38,0.86,40.48,-33.62,-75.16
-0.56,-0.32,0.89,39.81,-35.02,-81.12
-0.57,-0.28,0.94,37.74,-36.01,-87.07
-0.56,-0.27,0.96,33.86,-36.66,-93.08
-0.55,-0.28,0.98,28.15,-36.84,-98.96
-0.55,-0.28,0.98,28.15,-36.84,-98.96
-0.57,-0.3,0.97,20.97,-36.54,-104.31
-0.6,-0.32,0.95,13.07,-35.85,-109.41
-0.61,-0.34,0.91,5.36,-34.91,-114.65
-0.59,-0.36,0.89,-1.36,-33.95,-120.04
-0.57,-0.35,0.89,-6.74,-33.05,-125.34
-0.57,-0.35,0.89,-6.74,-33.05,-125.34
-0.55,-0.32,0.9,-10.92,-32.23,-130.27
-0.54,-0.28,0.91,-14.37,-31.54,-134.7
-0.53,-0.25,0.89,-17.36,-31.04,-138.71
-0.52,-0.24,0.87,-19.74,-30.69,-142.2
-0.51,-0.22,0.84,-21.29,-30.38,-144.77
-0.51,-0.22,0.84,-21.29,-30.38,-144.77
-0.52,-0.2,0.81,-21.7,-30.07,-146.46
-0.53,-0.22,0.75,-20.21,-29.62,-147.9
-0.54,-0.26,0.7,-15.66,-28.87,-149.38
-0.57,-0.22,0.7,-8.0,-27.83,-150.49
-0.59,-0.12,0.7,1.51,-26.84,-151.28
-0.59,-0.12,0.7,1.51,-26.84,-151.28
-0.6,0.0,0.7,11.45,-26.06,-152.38
-0.57,0.13,0.72,20.8,-25.52,-154.08
-0.53,0.25,0.72,28.76,-25.07,-156.06
-0.48,0.35,0.71,34.9,-24.43,-157.75
-0.45,0.44,0.69,39.33,-23.48,-158.79
-0.45,0.44,0.69,39.33,-23.48,-158.79
-0.46,0.52,0.68,42.18,-22.07,-159.0
-0.47,0.57,0.67,43.47,-20.31,-158.48
-0.49,0.61,0.68,43.16,-18.32,-157.38
-0.49,0.63,0.68,41.29,-16.05,-155.77
-0.5,0.63,0.66,38.26,-13.41,-153.61
-0.5,0.63,0.66,38.26,-13.41,-153.61
-0.49,0.63,0.65,34.62,-10.49,-151.0
-0.49,0.62,0.64,30.89,-7.36,-147.98
-0.5,0.61,0.63,27.4,-4.17,-144.54
-0.51,0.61,0.61,24.52,-1.08,-140.93
-0.51,0.61,0.6,22.65,1.67,-137.63
-0.51,0.61,0.6,22.65,1.67,-137.63
-0.49,0.63,0.62,21.86,3.89,-134.69
-0.47,0.65,0.65,21.83,5.54,-131.82
-0.44,0.68,0.69,21.9,6.79,-128.79
-0.41,0.69,0.73,21.49,7.8,-125.52
-0.39,0.67,0.77,20.26,8.86,-122.05
-0.39,0.67,0.77,20.26,8.86,-122.05
-0.39,0.62,0.79,18.28,10.3,-118.41
-0.41,0.57,0.8,15.86,12.13,-114.72
-0.43,0.54,0.79,13.42,14.16,-111.15
-0.44,0.51,0.8,11.35,16.12,-107.88
-0.45,0.49,0.81,9.81,17.84,-105.0
-0.45,0.49,0.81,9.81,17.84,-105.0
-0.46,0.48,0.82,8.83,19.22,-102.4
-0.46,0.48,0.82,8.33,20.18,-99.97
-0.46,0.46,0.84,8.13,20.65,-97.48
-0.45,0.44,0.86,8.02,20.65,-94.67
-0.44,0.41,0.86,7.96,20.32,-91.38
-0.44,0.41,0.86,7.96,20.32,-91.38
-0.43,0.38,0.87,8.06,19.76,-87.52
-0.44,0.35,0.87,8.41,19.0,-83.23
-0.45,0.33,0.87,9.08,18.05,-78.82
-0.45,0.32,0.87,10.11,16.8,-74.61
-0.44,0.31,0.87,11.35,15.25,-70.74
-0.44,0.31,0.87,11.35,15.25,-70.74
-0.43,0.32,0.87,12.73,13.5,-67.23
-0.42,0.33,0.88,14.05,11.74,-63.98
-0.4,0.34,0.89,15.0,10.21,-60.93
-0.38,0.34,0.89,15.34,9.12,-57.84
-0.37,0.32,0.91,14.99,8.66,-54.56
-0.37,0.32,0.91,14.99,8.66,-54.56
-0.38,0.29,0.9,14.21,8.87,-51.11
-0.4,0.25,0.89,13.38,9.54,-47.51
-0.42,0.23,0.87,13.02,10.49,-43.85
-0.43,0.23,0.88,13.44,11.44,-40.22
-0.43,0.23,0.91,14.38,11.94,-36.71
-0.43,0.23,0.91,14.38,11.94,-36.71
-0.42,0.25,0.92,15.39,12.0,-33.35
-0.43,0.27,0.91,16.49,11.74,-30.06
-0.43,0.28,0.93,17.59,11.1,-26.81
-0.42,0.3,0.95,18.43,10.12,-23.64
-0.41,0.32,0.97,18.68,8.98,-20.36
-0.41,0.32,0.97,18.68,8.98,-20.36
-0.39,0.32,0.98,18.14,7.8,-16.96
-0.37,0.31,0.99,16.73,6.72,-13.49
-0.36,0.28,0.97,14.79,5.9,-10.08
-0.36,0.26,0.97,12.85,5.34,-6.93
-0.36,0.26,0.97,11.27,4.99,-4.18
-0.35,0.25,0.97,11.27,4.99,-4.18
-0.34,0.25,0.97,10.16,4.87,-1.8
-0.33,0.27,0.98,9.43,4.99,0.26
-0.31,0.3,0.99,8.89,5.15,2.05
-0.31,0.34,1.0,8.38,5.31,3.63
-0.31,0.34,1.0,7.8,5.37,5.02
-0.31,0.39,1.01,7.8,5.37,5.02
-0.3,0.43,1.02,6.99,5.22,6.21
-0.29,0.46,1.03,5.78,4.83,7.22
-0.27,0.48,1.04,4.14,4.28,8.18
-0.27,0.49,1.04,2.26,3.69,9.2
-0.27,0.49,1.04,2.26,3.69,9.2
-0.28,0.51,1.04,0.37,3.15,10.29
-0.29,0.52,1.03,-1.35,2.7,11.41
-0.3,0.54,1.02,-2.72,2.4,12.63
-0.31,0.56,1.01,-3.64,2.2,14.02
-0.33,0.6,1.01,-4.04,2.13,15.56
-0.33,0.6,1.01,-4.04,2.13,15.56
-0.35,0.64,1.01,-4.06,2.16,17.26
-0.37,0.68,1.02,-3.87,2.26,19.18
-0.4,0.72,1.03,-3.65,2.45,21.32
-0.43,0.75,1.03,-3.6,2.61,23.72
-0.47,0.78,1.03,-3.9,2.55,26.38
-0.47,0.78,1.03,-3.9,2.55,26.38
-0.5,0.79,1.03,-4.68,2.15,29.28
-0.53,0.79,1.03,-6.1,1.26,32.49
-0.54,0.76,1.04,-8.31,-0.23,36.08
-0.55,0.71,1.02,-11.15,-2.24,40.11
-0.56,0.65,1.0,-14.19,-4.67,44.61
-0.56,0.65,1.0,-14.19,-4.67,44.61
-0.57,0.59,0.97,-16.97,-7.31,49.4
-0.59,0.53,0.95,-19.13,-9.99,54.23
-0.59,0.47,0.92,-20.54,-12.55,58.87
-0.58,0.41,0.9,-21.05,-14.77,63.33
-0.57,0.35,0.9,-20.38,-16.43,67.95
-0.57,0.35,0.9,-20.38,-16.43,67.95
-0.57,0.3,0.91,-18.94,-17.61,72.53
-0.58,0.25,0.91,-17.13,-18.38,76.93
-0.61,0.2,0.91,-15.23,-18.8,80.98
-0.63,0.15,0.91,-13.4,-19.08,84.42
-0.64,0.09,0.91,-11.74,-19.29,87.19
-0.64,0.09,0.91,-11.74,-19.29,87.19
-0.63,0.05,0.91,-10.45,-19.47,89.48
-0.6,0.02,0.91,-9.61,-19.69,91.46
-0.58,-0.01,0.91,-9.35,-19.87,93.27
-0.57,-0.05,0.91,-9.95,-20.08,94.81
-0.54,-0.11,0.88,-11.67,-20.58,96.06
-0.54,-0.11,0.88,-11.67,-20.58,96.06
-0.53,-0.17,0.86,-13.81,-21.17,97.22
-0.53,-0.22,0.84,-15.96,-21.79,98.2
-0.52,-0.29,0.8,-17.83,-22.51,98.8
-0.52,-0.31,0.79,-18.8,-22.98,98.87
-0.51,-0.33,0.79,-19.93,-23.49,98.12
-0.51,-0.33,0.79,-19.93,-23.49,98.12
-0.48,-0.36,0.74,-20.96,-24.17,97.23
-0.45,-0.43,0.72,-20.9,-24.25,96.04
-0.43,-0.45,0.74,-19.95,-23.8,94.94
-0.42,-0.43,0.75,-19.06,-23.19,93.69
-0.38,-0.43,0.75,-18.47,-22.47,91.56
-0.38,-0.43,0.75,-18.47,-22.47,91.56
-0.36,-0.45,0.76,-18.1,-21.26,89.35
-0.36,-0.46,0.76,-18.31,-19.77,87.4
-0.36,-0.49,0.73,-18.81,-18.01,85.0
-0.34,-0.54,0.68,-18.71,-15.65,82.24
-0.34,-0.56,0.65,-17.38,-12.86,79.92
-0.34,-0.56,0.65,-17.38,-12.86,79.92
-0.37,-0.54,0.69,-14.62,-9.88,77.55
-0.38,-0.5,0.72,-10.96,-6.72,74.26
-0.39,-0.45,0.75,-7.55,-3.61,70.48
-0.41,-0.4,0.77,-5.22,-0.85,66.87
-0.43,-0.37,0.79,-4.22,1.49,63.46
-0.43,-0.37,0.79,-4.22,1.49,63.46
-0.44,-0.36,0.8,-4.52,3.39,59.9
-0.44,-0.34,0.8,-5.68,4.99,56.35
-0.45,-0.33,0.8,-7.22,6.53,53.09
-0.47,-0.33,0.79,-8.79,7.98,50.05
-0.47,-0.33,0.79,-10.18,9.24,47.12
-0.47,-0.33,0.79,-10.18,9.24,47.12
-0.47,-0.33,0.8,-11.29,10.23,44.31
-0.48,-0.31,0.81,-12.14,10.94,41.63
-0.48,-0.3,0.83,-12.92,11.45,39.08
-0.47,-0.3,0.84,-13.82,11.79,36.66
-0.47,-0.3,0.84,-14.91,12.04,34.44
-0.47,-0.3,0.84,-14.91,12.04,34.44
-0.47,-0.3,0.85,-16.06,12.24,32.47
-0.47,-0.3,0.84,-17.0,12.5,30.62
-0.48,-0.31,0.83,-17.6,12.71,28.88
-0.47,-0.32,0.82,-17.78,12.67,27.16
-0.45,-0.32,0.83,-17.54,12.29,25.42
-0.45,-0.32,0.83,-17.54,12.29,25.42
-0.43,-0.32,0.84,-17.06,11.68,23.82
-0.42,-0.31,0.84,-16.57,10.91,22.57
-0.42,-0.31,0.83,-16.06,10.09,21.59
-0.41,-0.31,0.83,-15.42,9.34,20.78
-0.41,-0.32,0.83,-14.58,8.74,20.28
-0.41,-0.32,0.83,-14.58,8.74,20.28
-0.41,-0.31,0.83,-13.58,8.36,20.11
-0.43,-0.3,0.82,-12.43,8.2,19.86
-0.44,-0.27,0.83,-11.28,8.1,19.32
-0.45,-0.22,0.85,-10.35,7.87,18.21
-0.45,-0.2,0.86,-10.12,7.22,16.03
-0.45,-0.2,0.86,-10.12,7.22,16.03
-0.42,-0.24,0.84,-10.42,6.27,13.29
-0.4,-0.3,0.86,-10.47,5.4,10.97
-0.4,-0.3,0.86,-10.05,4.76,9.98
-0.41,-0.13,0.96,-9.97,4.6,9.9
-0.43,-0.08,0.92,-13.51,3.57,10.62
-0.43,-0.08,0.92,-13.51,3.57,10.62
-0.42,-0.18,0.79,-17.07,2.45,11.36
-0.46,-0.26,0.83,-18.42,1.88,10.78
-0.39,-0.31,0.87,-19.21,0.33,7.71
-0.34,-0.3,0.83,-19.41,-0.54,6.24
-0.4,-0.25,0.83,-18.68,-0.75,7.0
-0.4,-0.25,0.83,-18.68,-0.75,7.0
-0.41,-0.22,0.86,-17.47,-1.07,6.61
-0.36,-0.21,0.87,-16.46,-1.77,4.7
-0.34,-0.19,0.88,-16.31,-2.45,2.97
-0.33,-0.2,0.85,-17.01,-2.97,2.19
-0.34,-0.2,0.82,-17.59,-2.98,2.0
-0.34,-0.2,0.82,-17.59,-2.98,2.0
-0.33,-0.21,0.78,-17.66,-2.78,1.39
-0.31,-0.28,0.75,-16.13,-2.16,0.69
-0.31,-0.3,0.76,-12.3,-0.82,0.34
-0.33,-0.26,0.8,-7.01,0.78,0.26
-0.35,-0.18,0.85,-1.45,2.44,0.16
-0.35,-0.18,0.85,-1.45,2.44,0.16
-0.38,-0.1,0.9,2.89,3.71,-0.43
-0.38,-0.06,0.92,4.84,4.22,-1.5
-0.39,-0.06,0.89,4.88,4.19,-2.65
-0.38,-0.13,0.86,4.71,3.93,-4.15
-0.4,-0.13,0.86,5.18,3.71,-5.28
-0.4,-0.13,0.86,5.18,3.71,-5.28
-0.41,-0.1,0.87,5.88,3.11,-6.34
-0.38,-0.07,0.92,6.33,2.31,-7.89
-0.41,0.09,1.02,4.59,1.19,-9.9
-0.3,0.02,0.92,-1.9,-0.56,-12.95
-0.32,0.03,0.87,-8.15,-1.55,-13.29
-0.32,0.03,0.87,-8.15,-1.55,-13.29
-0.34,-0.1,0.82,-14.03,-2.25,-14.19
-0.33,-0.21,0.77,-17.17,-2.21,-15.06
-0.36,-0.23,0.79,-17.74,-1.51,-15.04
-0.38,-0.16,0.83,-16.3,-0.86,-14.29
-0.38,-0.11,0.85,-14.32,-0.1,-13.77
-0.38,-0.11,0.85,-14.32,-0.1,-13.77
-0.37,-0.09,0.85,-12.53,0.27,-13.48
-0.37,-0.1,0.83,-10.75,0.22,-13.48
-0.32,-0.16,0.82,-8.2,-0.02,-14.21
-0.33,-0.09,0.86,-4.93,0.31,-13.7
