ax,ay,az,gx,gy,gz
0.19,-0.48,0.86,-1.67,18.19,-0.11
0.19,-0.5,0.85,-2.48,18.61,0.68
0.17,-0.51,0.84,-3.03,19.23,1.5
0.17,-0.53,0.83,-3.12,19.94,2.19
0.17,-0.53,0.83,-3.12,19.94,2.19
0.16,-0.54,0.83,-2.7,20.66,2.74
0.15,-0.54,0.83,-1.83,21.32,3.19
0.14,-0.54,0.83,-0.58,21.83,3.48
0.14,-0.53,0.83,0.95,22.08,3.63
0.14,-0.51,0.84,2.61,22.08,3.69
0.14,-0.51,0.84,2.61,22.08,3.69
0.14,-0.49,0.86,4.07,21.92,3.74
0.13,-0.47,0.87,5.12,21.66,3.77
0.11,-0.46,0.88,5.6,21.25,3.75
0.1,-0.45,0.87,5.41,20.59,3.61
0.11,-0.45,0.88,4.63,19.61,3.38
0.11,-0.45,0.88,4.63,19.61,3.38
0.11,-0.44,0.88,3.38,18.39,3.16
0.13,-0.45,0.88,1.7,17.14,2.74
0.15,-0.47,0.87,-0.23,16.12,2.39
0.15,-0.49,0.87,-2.31,15.44,2.39
0.14,-0.51,0.86,-4.31,15.19,2.46
0.14,-0.51,0.86,-4.31,15.19,2.46
0.12,-0.53,0.84,-6.02,15.3,2.37
0.1,-0.54,0.82,-7.15,15.46,2.06
0.09,-0.54,0.81,-7.46,15.48,1.54
0.09,-0.53,0.81,-6.97,15.26,0.91
0.08,-0.52,0.81,-5.9,14.75,0.27
0.08,-0.52,0.81,-5.9,14.75,0.27
0.09,-0.51,0.82,-4.57,14.0,-0.38
0.1,-0.5,0.82,-3.14,13.11,-0.93
0.11,-0.5,0.82,-1.77,12.2,-1.28
0.12,-0.5,0.83,-0.53,11.32,-1.41
0.11,-0.49,0.82,0.57,10.59,-1.28
0.11,-0.49,0.82,0.57,10.59,-1.28
0.1,-0.49,0.82,1.55,10.01,-1.06
0.09,-0.48,0.82,2.46,9.53,-0.8
0.09,-0.47,0.83,3.25,9.16,-0.53
0.09,-0.46,0.83,3.87,8.88,-0.29
0.1,-0.45,0.84,4.23,8.75,-0.06
0.1,-0.45,0.84,4.23,8.75,-0.06
0.09,-0.45,0.84,4.25,8.82,0.31
0.08,-0.43,0.84,3.89,8.89,0.78
0.07,-0.43,0.84,3.2,8.8,1.28
0.08,-0.43,0.85,2.22,8.46,1.8
0.09,-0.45,0.85,0.89,8.05,2.42
0.09,-0.45,0.85,0.89,8.05,2.42
0.08,-0.46,0.85,-0.68,7.62,3.01
0.07,-0.48,0.85,-2.27,7.21,3.4
0.08,-0.5,0.83,-3.81,6.8,3.3
0.11,-0.53,0.83,-5.01,6.38,2.81
0.13,-0.54,0.83,-5.82,6.04,2.74
0.13,-0.54,0.83,-5.82,6.04,2.74
0.14,-0.54,0.83,-6.33,5.8,3.09
0.14,-0.55,0.82,-6.63,5.76,3.55
0.12,-0.55,0.83,-6.79,5.82,4.19
0.12,-0.57,0.82,-6.75,5.89,4.42
0.13,-0.58,0.81,-6.28,5.97,4.47
0.13,-0.58,0.81,-6.28,5.97,4.47
0.14,-0.58,0.83,-5.44,6.0,4.67
0.13,-0.56,0.85,-4.44,6.15,4.96
0.11,-0.53,0.86,-3.6,6.33,5.22
0.1,-0.52,0.87,-3.3,6.47,5.06
0.1,-0.52,0.87,-3.44,6.57,4.52
0.11,-0.53,0.87,-3.44,6.57,4.52
0.11,-0.54,0.88,-3.88,6.56,4.03
0.11,-0.55,0.88,-4.54,6.61,3.5
0.1,-0.55,0.89,-5.47,6.65,3.04
0.09,-0.56,0.87,-6.61,6.66,2.39
0.09,-0.56,0.87,-7.53,6.57,1.38
0.09,-0.59,0.85,-7.53,6.57,1.38
0.09,-0.61,0.84,-7.88,6.36,0.45
0.1,-0.61,0.84,-7.65,6.01,-0.28
0.1,-0.6,0.83,-6.93,5.61,-0.92
0.09,-0.59,0.83,-5.81,5.23,-1.46
0.09,-0.59,0.83,-5.81,5.23,-1.46
0.08,-0.57,0.83,-4.38,4.81,-1.99
0.08,-0.55,0.83,-2.66,4.32,-2.53
0.08,-0.53,0.84,-0.85,3.77,-3.05
0.08,-0.51,0.85,0.74,3.26,-3.49
0.08,-0.49,0.86,1.93,2.81,-3.85
0.08,-0.49,0.86,1.93,2.81,-3.85
0.08,-0.47,0.86,2.73,2.4,-4.15
0.08,-0.47,0.85,3.09,2.11,-4.34
0.08,-0.47,0.86,3.05,1.94,-4.48
0.08,-0.48,0.86,2.64,1.99,-4.63
0.08,-0.49,0.85,1.96,2.28,-4.79
0.08,-0.49,0.85,1.96,2.28,-4.79
0.07,-0.5,0.84,1.32,2.74,-4.93
0.06,-0.5,0.84,0.85,3.3,-5.1
0.06,-0.5,0.84,0.61,3.81,-5.27
0.06,-0.5,0.84,0.55,4.12,-5.39
0.05,-0.49,0.84,0.5,4.19,-5.38
0.05,-0.49,0.84,0.5,4.19,-5.38
0.05,-0.48,0.84,0.42,4.0,-5.24
0.05,-0.48,0.83,0.28,3.51,-4.96
0.05,-0.48,0.84,0.07,2.75,-4.53
0.05,-0.49,0.83,-0.22,1.83,-4.05
0.06,-0.51,0.83,-0.47,0.8,-3.56
0.06,-0.51,0.83,-0.47,0.8,-3.56
0.07,-0.52,0.83,-0.59,-0.23,-3.04
0.08,-0.53,0.83,-0.51,-1.14,-2.43
0.07,-0.53,0.82,-0.25,-1.87,-1.81
0.07,-0.53,0.82,0.16,-2.39,-1.35
0.08,-0.52,0.82,0.65,-2.65,-1.08
0.08,-0.52,0.82,0.65,-2.65,-1.08
0.09,-0.52,0.82,1.09,-2.65,-0.83
0.09,-0.52,0.82,1.3,-2.38,-0.59
0.09,-0.52,0.81,1.34,-1.83,-0.41
0.08,-0.54,0.81,1.26,-1.11,-0.32
0.07,-0.54,0.81,1.22,-0.31,-0.43
0.07,-0.54,0.81,1.22,-0.31,-0.43
0.06,-0.54,0.81,1.33,0.42,-0.74
0.06,-0.54,0.82,1.53,1.0,-1.12
0.06,-0.53,0.82,1.7,1.35,-1.57
0.07,-0.53,0.83,1.75,1.41,-2.05
0.08,-0.52,0.82,1.66,1.24,-2.51
0.08,-0.52,0.82,1.66,1.24,-2.51
0.08,-0.52,0.82,1.4,0.92,-2.87
0.09,-0.51,0.82,1.03,0.47,-3.09
0.09,-0.51,0.82,0.61,-0.06,-3.15
0.1,-0.51,0.81,0.2,-0.61,-3.04
0.11,-0.51,0.81,-0.07,-1.11,-2.74
0.11,-0.51,0.81,-0.07,-1.11,-2.74
0.11,-0.51,0.81,-0.2,-1.44,-2.35
0.11,-0.51,0.81,-0.26,-1.55,-1.89
0.12,-0.51,0.81,-0.27,-1.41,-1.41
0.12,-0.51,0.81,-0.33,-1.01,-0.93
0.12,-0.52,0.81,-0.46,-0.35,-0.45
0.12,-0.52,0.81,-0.46,-0.35,-0.45
0.12,-0.52,0.81,-0.63,0.49,-0.02
0.11,-0.52,0.81,-0.72,1.41,0.36
0.11,-0.52,0.81,-0.71,2.41,0.62
0.1,-0.51,0.81,-0.62,3.34,0.7
0.1,-0.5,0.82,-0.52,4.16,0.68
0.1,-0.5,0.82,-0.52,4.16,0.68
0.1,-0.49,0.83,-0.55,4.9,0.64
0.11,-0.49,0.84,-0.81,5.52,0.63
0.11,-0.49,0.84,-1.34,6.09,0.68
0.11,-0.5,0.85,-2.04,6.56,0.85
0.11,-0.52,0.85,-2.8,6.97,1.17
0.11,-0.52,0.85,-2.8,6.97,1.17
0.1,-0.54,0.85,-3.45,7.26,1.58
0.09,-0.56,0.84,-3.84,7.37,1.96
0.08,-0.56,0.84,-3.82,7.26,2.25
0.08,-0.56,0.84,-3.35,6.86,2.43
0.07,-0.55,0.85,-2.67,6.2,2.49
0.07,-0.55,0.85,-2.67,6.2,2.49
0.07,-0.53,0.85,-2.05,5.35,2.35
0.07,-0.52,0.86,-1.64,4.35,1.98
0.09,-0.51,0.85,-1.47,3.26,1.45
0.1,-0.5,0.85,-1.56,2.25,0.84
0.1,-0.5,0.85,-1.99,1.42,0.2
0.1,-0.5,0.85,-1.99,1.42,0.2
0.11,-0.5,0.85,-2.72,0.81,-0.57
0.11,-0.5,0.84,-3.63,0.52,-1.35
0.12,-0.51,0.83,-4.51,0.54,-2.12
0.13,-0.51,0.82,-5.23,0.84,-2.87
0.13,-0.51,0.82,-5.72,1.45,-3.5
0.13,-0.51,0.82,-5.72,1.45,-3.5
0.13,-0.51,0.82,-6.01,2.27,-3.9
0.12,-0.5,0.81,-5.96,3.18,-4.08
0.11,-0.48,0.81,-5.47,4.04,-4.18
0.11,-0.45,0.82,-4.6,4.79,-4.24
0.11,-0.42,0.84,-3.57,5.49,-4.28
0.11,-0.42,0.84,-3.57,5.49,-4.28
0.13,-0.39,0.85,-2.61,6.18,-4.31
0.14,-0.36,0.87,-1.78,6.86,-4.27
0.15,-0.33,0.89,-1.23,7.56,-4.12
0.15,-0.31,0.92,-1.09,8.3,-3.94
0.16,-0.28,0.93,-1.46,9.06,-3.73
0.16,-0.28,0.93,-1.46,9.06,-3.73
0.18,-0.24,0.94,-2.39,9.84,-3.66
0.22,-0.21,0.96,-3.75,10.6,-3.79
0.27,-0.17,0.97,-5.32,11.41,-4.1
0.33,-0.12,0.98,-6.79,12.39,-4.6
0.39,-0.08,1.02,-8.1,13.65,-5.23
0.39,-0.08,1.02,-8.1,13.65,-5.23
0.44,-0.05,1.06,-9.48,15.45,-5.76
0.46,-0.02,1.12,-11.17,17.8,-5.76
0.44,-0.0,1.17,-13.65,20.83,-4.98
0.37,-0.02,1.18,-17.09,24.08,-3.39
0.27,-0.06,1.16,-21.26,27.13,-1.15
0.27,-0.06,1.16,-21.26,27.13,-1.15
0.18,-0.11,1.14,-25.31,29.39,1.54
0.1,-0.15,1.12,-28.6,30.51,4.51
0.05,-0.15,1.11,-30.83,30.39,7.44
0.01,-0.14,1.11,-31.96,28.92,9.97
-0.02,-0.12,1.12,-32.2,26.3,11.91
-0.02,-0.12,1.12,-32.2,26.3,11.91
-0.03,-0.1,1.12,-32.03,22.71,13.39
-0.03,-0.08,1.12,-31.83,18.32,14.65
-0.04,-0.06,1.13,-31.89,13.39,16.03
-0.04,-0.08,1.14,-32.64,8.2,17.89
-0.04,-0.12,1.12,-34.47,3.06,20.51
-0.04,-0.12,1.12,-34.47,3.06,20.51
-0.06,-0.19,1.09,-37.17,-1.8,23.77
-0.09,-0.25,1.03,-40.24,-6.34,27.35
-0.1,-0.31,0.96,-42.84,-10.62,30.89
-0.11,-0.36,0.91,-44.29,-14.67,34.18
-0.11,-0.39,0.89,-44.48,-18.52,37.12
-0.11,-0.39,0.89,-44.48,-18.52,37.12
-0.09,-0.4,0.86,-43.67,-22.2,39.67
-0.06,-0.41,0.85,-42.16,-25.61,41.83
-0.03,-0.41,0.85,-40.46,-28.58,43.74
-0.02,-0.43,0.85,-39.35,-31.05,45.67
-0.04,-0.47,0.83,-39.39,-32.95,47.62
-0.04,-0.47,0.83,-39.39,-32.95,47.62
-0.06,-0.53,0.81,-40.58,-34.43,49.44
-0.07,-0.6,0.76,-42.65,-35.5,51.01
-0.07,-0.67,0.71,-45.15,-36.39,52.3
-0.07,-0.73,0.65,-47.25,-37.14,53.4
-0.07,-0.78,0.58,-48.21,-37.8,54.18
-0.07,-0.78,0.58,-48.21,-37.8,54.18
-0.08,-0.8,0.55,-47.77,-38.6,54.7
-0.07,-0.81,0.55,-46.06,-39.48,55.08
-0.07,-0.82,0.57,-43.72,-40.43,55.39
-0.07,-0.84,0.58,-41.71,-41.25,55.71
-0.08,-0.85,0.57,-40.39,-41.82,55.95
-0.08,-0.85,0.57,-40.39,-41.82,55.95
-0.09,-0.88,0.55,-39.65,-42.2,56.09
-0.1,-0.91,0.53,-39.43,-42.44,56.1
-0.11,-0.93,0.51,-39.68,-42.54,55.9
-0.11,-0.94,0.48,-40.28,-42.54,55.26
-0.11,-0.95,0.45,-40.94,-42.41,53.88
-0.11,-0.95,0.45,-40.94,-42.41,53.88
-0.09,-0.96,0.43,-41.28,-42.19,51.88
-0.07,-0.97,0.43,-41.24,-41.91,49.72
-0.06,-0.98,0.44,-41.1,-41.37,47.78
-0.06,-1.0,0.46,-41.1,-40.48,46.12
-0.07,-1.04,0.45,-41.17,-39.1,44.6
-0.07,-1.04,0.45,-41.17,-39.1,44.6
-0.1,-1.08,0.43,-41.1,-37.17,43.01
-0.12,-1.11,0.42,-40.55,-34.74,41.32
-0.14,-1.13,0.4,-39.26,-31.98,39.51
-0.15,-1.13,0.38,-37.08,-29.1,37.62
-0.15,-1.12,0.37,-33.77,-26.29,35.64
-0.15,-1.12,0.37,-33.77,-26.29,35.64
-0.13,-1.11,0.39,-29.51,-23.6,33.66
-0.15,-0.99,0.48,-25.04,-21.14,31.7
-0.15,-1.03,0.47,-22.39,-18.21,28.78
-0.16,-1.15,0.37,-18.89,-16.14,26.79
-0.21,-1.13,0.38,-13.13,-14.44,25.49
-0.21,-1.13,0.38,-13.13,-14.44,25.49
-0.22,-1.07,0.49,-7.4,-12.74,23.33
-0.21,-1.01,0.56,-2.36,-11.21,20.91
-0.19,-0.96,0.55,0.58,-9.97,18.78
-0.18,-0.95,0.5,1.88,-9.06,16.74
-0.17,-0.94,0.48,2.82,-8.36,14.75
-0.17,-0.94,0.48,2.82,-8.36,14.75
-0.16,-0.92,0.5,3.51,-8.12,12.99
-0.15,-0.89,0.52,3.44,-8.27,11.3
-0.13,-0.9,0.51,2.38,-8.55,9.39
-0.1,-0.94,0.49,0.72,-8.79,7.42
-0.07,-0.99,0.46,-0.68,-8.91,5.87
-0.07,-0.99,0.46,-0.68,-8.91,5.87
-0.07,-1.02,0.46,-1.36,-8.71,4.87
-0.07,-1.06,0.47,-1.27,-8.13,4.12
-0.07,-1.09,0.47,-0.52,-7.08,3.42
-0.08,-1.12,0.46,0.83,-5.63,2.76
-0.09,-1.14,0.43,2.92,-4.02,2.08
-0.09,-1.14,0.43,2.92,-4.02,2.08
-0.1,-1.14,0.42,5.86,-2.48,1.34
-0.1,-1.14,0.42,9.51,-1.19,0.3
-0.09,-1.13,0.42,13.51,-0.23,-1.01
-0.08,-1.13,0.42,17.52,0.35,-2.41
-0.05,-1.13,0.41,21.44,0.57,-3.7
-0.05,-1.13,0.41,21.44,0.57,-3.7
-0.03,-1.14,0.42,25.19,0.53,-4.8
-0.03,-1.15,0.41,28.76,0.46,-5.69
-0.05,-1.15,0.41,32.2,0.45,-6.63
-0.07,-1.14,0.41,35.44,0.42,-8.01
-0.08,-1.12,0.42,38.31,0.29,-10.04
-0.08,-1.12,0.42,38.31,0.29,-10.04
-0.05,-1.1,0.43,40.51,0.07,-12.59
-0.03,-1.07,0.44,41.83,-0.16,-15.34
-0.0,-1.04,0.45,42.26,-0.19,-18.11
0.01,-1.03,0.46,41.83,0.01,-20.86
0.0,-1.03,0.47,40.52,0.58,-23.62
0.0,-1.03,0.47,40.52,0.58,-23.62
-0.0,-1.03,0.47,38.45,1.56,-26.5
0.0,-1.05,0.47,35.84,2.97,-29.53
0.01,-1.08,0.49,32.93,4.77,-32.49
0.0,-1.09,0.5,29.86,7.0,-35.35
-0.01,-1.11,0.51,26.63,9.74,-38.58
-0.01,-1.11,0.51,26.63,9.74,-38.58
-0.03,-1.15,0.49,23.88,12.81,-42.2
-0.05,-1.16,0.49,22.08,15.92,-45.86
-0.06,-1.15,0.52,20.78,18.93,-49.39
-0.07,-1.13,0.55,19.63,21.79,-52.65
-0.09,-1.11,0.56,18.17,24.47,-55.61
-0.09,-1.11,0.56,18.17,24.47,-55.61
-0.1,-1.12,0.54,16.48,26.82,-58.6
-0.12,-1.12,0.52,15.06,28.71,-61.43
-0.15,-1.12,0.52,14.05,29.94,-64.16
-0.16,-1.13,0.51,13.4,30.57,-67.08
-0.17,-1.13,0.48,13.23,30.63,-70.39
-0.17,-1.13,0.48,13.23,30.63,-70.39
-0.16,-1.1,0.47,13.53,30.13,-74.03
-0.12,-1.05,0.48,14.28,29.19,-77.94
-0.07,-1.02,0.5,15.15,28.07,-81.92
-0.05,-0.99,0.5,15.7,27.07,-85.63
-0.04,-0.96,0.48,15.87,26.4,-88.95
-0.04,-0.96,0.48,15.87,26.4,-88.95
-0.03,-0.94,0.47,15.87,26.01,-92.06
-0.01,-0.93,0.46,15.88,25.91,-95.29
0.01,-0.9,0.46,15.93,26.2,-98.64
0.03,-0.86,0.47,15.99,26.97,-101.92
0.05,-0.83,0.48,16.05,28.33,-105.11
0.05,-0.83,0.48,16.05,28.33,-105.11
0.06,-0.79,0.5,16.08,30.41,-108.21
0.05,-0.74,0.52,16.03,33.39,-111.09
0.03,-0.69,0.53,16.07,36.94,-113.56
0.01,-0.63,0.54,16.48,40.49,-115.45
-0.01,-0.57,0.56,17.28,43.67,-116.66
-0.01,-0.57,0.56,17.28,43.67,-116.66
-0.02,-0.53,0.6,18.34,46.19,-117.32
-0.02,-0.49,0.64,19.44,47.99,-117.51
-0.01,-0.46,0.68,20.66,49.28,-117.2
-0.01,-0.42,0.71,22.39,50.08,-116.19
-0.04,-0.38,0.74,24.82,50.44,-114.36
-0.04,-0.38,0.74,24.82,50.44,-114.36
-0.09,-0.31,0.8,27.89,50.37,-112.01
-0.11,-0.24,0.83,31.25,49.79,-109.66
-0.11,-0.16,0.86,34.72,48.59,-107.58
-0.09,-0.09,0.92,38.19,47.06,-105.86
-0.08,-0.0,1.01,41.04,45.38,-104.4
-0.08,-0.0,1.01,41.04,45.38,-104.4
-0.07,0.09,1.07,42.55,44.23,-103.37
-0.05,0.16,1.11,42.25,43.72,-102.79
-0.03,0.19,1.13,40.19,43.76,-102.19
-0.02,0.21,1.15,36.54,44.58,-101.2
-0.0,0.22,1.16,31.63,46.15,-99.45
-0.0,0.22,1.16,31.63,46.15,-99.45
0.0,0.21,1.17,26.09,48.15,-96.71
-0.01,0.19,1.17,20.47,50.44,-93.21
-0.05,0.16,1.17,15.41,52.8,-89.31
-0.08,0.13,1.15,11.39,54.83,-85.34
-0.09,0.11,1.14,8.46,56.13,-81.48
-0.09,0.11,1.14,8.46,56.13,-81.48
-0.08,0.1,1.13,6.66,56.42,-77.82
-0.07,0.1,1.14,5.88,55.68,-74.3
-0.05,0.11,1.13,5.67,53.96,-70.86
-0.02,0.1,1.13,5.53,51.46,-67.42
0.02,0.08,1.13,5.1,48.43,-63.82
0.02,0.08,1.13,5.1,48.43,-63.82
0.05,0.05,1.12,4.21,45.13,-60.11
0.07,0.01,1.1,2.93,41.91,-56.28
0.08,-0.03,1.08,1.48,38.97,-52.37
0.08,-0.06,1.07,-0.09,36.31,-48.46
0.09,-0.08,1.05,-1.69,33.96,-44.73
0.09,-0.08,1.05,-1.69,33.96,-44.73
0.11,-0.1,1.04,-3.39,31.9,-41.33
0.12,-0.13,1.02,-5.18,30.16,-38.26
0.13,-0.16,0.99,-6.77,28.8,-35.43
0.15,-0.15,0.97,-7.72,27.79,-32.84
0.16,-0.12,1.03,-8.82,27.2,-30.25
0.16,-0.12,1.03,-8.82,27.2,-30.25
0.08,-0.09,1.04,-11.68,26.52,-27.48
0.15,-0.3,0.93,-14.42,25.67,-27.45
0.17,-0.3,0.87,-14.92,25.95,-25.79
0.11,-0.45,0.89,-13.91,24.88,-22.27
0.12,-0.5,0.86,-8.42,24.28,-20.05
0.12,-0.5,0.86,-8.42,24.28,-20.05
0.1,-0.4,0.94,-0.71,24.3,-18.18
0.08,-0.28,1.05,6.65,23.58,-15.83
0.1,-0.26,1.06,12.15,22.72,-14.03
0.13,-0.27,1.0,16.44,21.65,-12.45
0.13,-0.28,1.01,20.76,20.56,-10.39
0.13,-0.28,1.01,20.76,20.56,-10.39
0.1,-0.24,1.01,25.13,19.44,-7.51
0.07,-0.17,1.04,29.16,18.03,-4.5
0.06,-0.14,1.08,32.2,16.46,-2.11
0.06,-0.09,1.1,33.9,14.73,-0.04
0.06,-0.09,1.1,33.7,13.03,1.76
0.07,-0.05,1.11,33.7,13.03,1.76
0.06,0.01,1.11,31.72,11.16,4.2
0.04,0.01,1.09,28.57,8.91,6.44
0.08,-0.06,1.06,25.4,6.47,8.13
0.06,-0.09,1.08,23.0,3.91,11.07
0.06,-0.09,1.08,23.0,3.91,11.07
0.06,-0.07,1.09,21.05,1.17,14.29
0.08,-0.07,1.1,19.55,-1.59,17.04
0.1,-0.07,1.13,18.58,-4.24,19.31
0.14,-0.09,1.15,17.59,-6.45,21.02
0.15,-0.11,1.14,16.41,-8.11,23.33
0.15,-0.11,1.14,16.41,-8.11,23.33
0.13,-0.1,1.14,15.27,-9.38,26.62
0.12,-0.12,1.09,14.69,-10.41,29.93
0.11,-0.14,1.07,15.64,-11.24,32.73
0.1,-0.13,1.09,17.99,-12.03,35.56
0.1,-0.06,1.13,20.87,-13.03,38.31
0.1,-0.06,1.13,20.87,-13.03,38.31
0.1,-0.0,1.14,23.26,-14.24,40.13
0.12,0.02,1.16,24.91,-15.41,40.85
0.12,0.03,1.19,25.53,-16.28,41.99
0.09,0.05,1.22,24.41,-17.05,43.94
0.06,0.06,1.21,21.63,-17.63,46.12
0.06,0.06,1.21,21.63,-17.63,46.12
0.05,0.01,1.2,17.68,-18.05,48.38
0.03,-0.04,1.19,13.06,-18.63,51.06
0.01,-0.09,1.16,8.3,-19.52,53.88
-0.01,-0.14,1.11,4.22,-20.85,56.41
-0.03,-0.18,1.07,1.52,-22.64,58.36
-0.03,-0.18,1.07,1.52,-22.64,58.36
-0.03,-0.22,1.08,0.21,-24.83,59.77
-0.01,-0.24,1.08,-0.29,-27.28,61.06
0.01,-0.25,1.07,-0.36,-29.82,62.66
0.01,-0.27,1.07,-0.33,-32.18,64.59
0.0,-0.3,1.07,-0.57,-34.3,66.85
0.0,-0.3,1.07,-0.57,-34.3,66.85
-0.02,-0.33,1.05,-1.45,-36.19,69.38
-0.04,-0.36,1.02,-3.04,-37.94,71.82
-0.06,-0.41,0.97,-4.96,-39.61,73.85
-0.07,-0.45,0.92,-6.83,-41.16,75.42
-0.08,-0.49,0.88,-8.34,-42.62,76.73
-0.08,-0.49,0.88,-8.34,-42.62,76.73
-0.1,-0.51,0.85,-9.24,-44.04,77.72
-0.13,-0.52,0.82,-9.33,-45.31,78.06
-0.15,-0.52,0.81,-8.71,-46.4,77.54
-0.15,-0.54,0.82,-7.77,-47.28,76.52
-0.14,-0.56,0.82,-7.15,-47.85,75.58
-0.14,-0.56,0.82,-7.15,-47.85,75.58
-0.13,-0.58,0.81,-7.05,-47.93,75.13
-0.15,-0.59,0.79,-7.23,-47.56,75.2
-0.18,-0.61,0.77,-7.34,-47.01,75.48
-0.2,-0.64,0.75,-7.47,-46.46,75.67
-0.21,-0.67,0.74,-7.82,-46.12,75.56
-0.21,-0.67,0.74,-7.82,-46.12,75.56
-0.21,-0.7,0.7,-8.53,-46.12,75.09
-0.2,-0.71,0.66,-9.4,-46.49,74.25
-0.19,-0.71,0.61,-10.02,-47.18,73.06
-0.17,-0.71,0.59,-10.17,-48.04,71.61
-0.14,-0.71,0.59,-9.95,-48.96,70.21
-0.14,-0.71,0.59,-9.95,-48.96,70.21
-0.11,-0.71,0.6,-9.64,-49.78,69.15
-0.08,-0.73,0.62,-9.61,-50.36,68.49
-0.08,-0.76,0.62,-10.06,-50.55,68.05
-0.1,-0.81,0.61,-10.85,-50.39,67.69
-0.11,-0.86,0.6,-11.64,-50.11,67.2
-0.11,-0.86,0.6,-11.64,-50.11,67.2
-0.12,-0.91,0.58,-12.24,-49.88,66.4
-0.11,-0.95,0.56,-12.47,-49.76,65.17
-0.1,-0.98,0.54,-12.09,-49.72,63.6
-0.08,-0.99,0.52,-10.97,-49.6,61.81
-0.06,-0.98,0.52,-9.21,-49.25,59.95
-0.06,-0.98,0.52,-9.21,-49.25,59.95
-0.02,-0.96,0.52,-7.09,-48.44,58.11
0.01,-0.93,0.54,-4.92,-47.05,56.39
0.04,-0.92,0.56,-3.0,-44.98,54.91
0.05,-0.92,0.56,-1.61,-42.21,53.72
0.03,-0.92,0.55,-0.72,-38.95,52.77
0.03,-0.92,0.55,-0.72,-38.95,52.77
0.01,-0.91,0.54,-0.14,-35.62,51.84
-0.01,-0.91,0.53,0.19,-32.7,50.62
0.01,-0.92,0.53,0.42,-30.4,48.88
0.02,-0.93,0.52,0.68,-28.7,47.19
0.02,-0.93,0.51,1.11,-27.63,45.64
0.02,-0.93,0.51,1.11,-27.63,45.64
0.03,-0.95,0.5,1.96,-26.84,44.01
0.02,-0.95,0.51,3.33,-26.17,42.39
0.03,-0.93,0.53,5.08,-25.46,40.58
0.05,-0.91,0.56,7.01,-24.49,38.52
0.07,-0.9,0.59,8.77,-23.14,36.44
0.07,-0.9,0.59,8.77,-23.14,36.44
0.08,-0.89,0.62,10.16,-21.27,34.43
0.09,-0.86,0.63,11.15,-18.84,32.61
0.09,-0.88,0.66,11.3,-15.97,30.68
0.1,-0.9,0.61,10.97,-12.96,29.2
0.04,-0.92,0.59,11.41,-10.34,28.78
0.04,-0.92,0.59,11.41,-10.34,28.78
0.05,-0.84,0.63,13.1,-8.06,26.96
0.09,-0.8,0.69,13.97,-5.36,24.27
0.07,-0.83,0.69,14.03,-3.58,22.69
0.07,-0.85,0.62,14.44,-2.41,21.14
0.07,-0.85,0.61,15.72,-1.28,19.26
0.07,-0.85,0.61,15.72,-1.28,19.26
0.06,-0.82,0.65,18.02,-0.64,17.95
0.05,-0.77,0.71,20.41,-0.54,16.74
0.05,-0.72,0.74,21.83,-0.64,15.07
0.06,-0.7,0.76,21.95,-0.88,13.3
0.07,-0.68,0.76,20.92,-1.31,11.85
0.07,-0.68,0.76,20.92,-1.31,11.85
0.06,-0.68,0.75,19.07,-1.67,10.62
0.05,-0.66,0.75,16.7,-1.82,9.41
0.04,-0.66,0.75,13.93,-1.83,7.92
0.05,-0.67,0.73,10.95,-1.78,6.05
0.07,-0.69,0.72,8.01,-1.72,3.87
0.07,-0.69,0.72,8.01,-1.72,3.87
0.11,-0.7,0.71,5.47,-1.56,1.81
0.12,-0.67,0.73,3.28,-1.22,0.45
0.13,-0.63,0.75,0.8,-0.67,-0.58
0.14,-0.65,0.75,-2.12,0.12,-1.58
0.13,-0.68,0.7,-4.9,0.96,-2.31
0.13,-0.68,0.7,-4.9,0.96,-2.31
0.11,-0.71,0.67,-6.81,1.75,-3.06
0.1,-0.72,0.66,-7.35,2.56,-4.34
0.11,-0.71,0.69,-6.78,3.32,-6.06
0.15,-0.72,0.71,-5.77,4.09,-7.81
0.17,-0.71,0.69,-4.5,5.08,-8.66
